File: Li-Ion-Batterie/Data Cleaning/uncalendered_rawdata.csv
Record number,status,Jump,Cycle,Steps,Current(A),Capacity(Ah),Voltage(V),Relative Time(h:min:s.ms),Real Time(h:min:s.ms)
1,Rest,1,1,1,0.00000000,0.00000000,2.7033,0:00:00.000,2021-10-28 14:14:47
39,CCCV DChg,2,1,2,-0.00008816,0.00002498,0.8026,0:17:00.000,2021-10-28 14:33:17
77,CCCV DChg,2,1,2,-0.00008810,0.00005289,0.6656,0:36:00.000,2021-10-28 14:52:17
115,CCCV DChg,2,1,2,-0.00008816,0.00008079,0.6454,0:55:00.000,2021-10-28 15:11:17
153,CCCV DChg,2,1,2,-0.00008810,0.00010870,0.6243,1:14:00.000,2021-10-28 15:30:17
191,CCCV DChg,2,1,2,-0.00008816,0.00013661,0.5967,1:33:00.000,2021-10-28 15:49:17
229,CCCV DChg,2,1,2,-0.00008810,0.00016451,0.5660,1:52:00.000,2021-10-28 16:08:17
267,CCCV DChg,2,1,2,-0.00008810,0.00019242,0.5230,2:11:00.000,2021-10-28 16:27:17
305,CCCV DChg,2,1,2,-0.00008810,0.00022032,0.4765,2:30:00.000,2021-10-28 16:46:17
343,CCCV DChg,2,1,2,-0.00008816,0.00024822,0.4312,2:49:00.000,2021-10-28 17:05:17
381,CCCV DChg,2,1,2,-0.00008810,0.00027613,0.3859,3:08:00.000,2021-10-28 17:24:17
419,CCCV DChg,2,1,2,-0.00008810,0.00030403,0.3391,3:27:00.000,2021-10-28 17:43:17
457,CCCV DChg,2,1,2,-0.00008810,0.00033193,0.2932,3:46:00.000,2021-10-28 18:02:17
495,CCCV DChg,2,1,2,-0.00008810,0.00035983,0.2526,4:05:00.000,2021-10-28 18:21:17
533,CCCV DChg,2,1,2,-0.00008810,0.00038772,0.2188,4:24:00.000,2021-10-28 18:40:17
571,CCCV DChg,2,1,2,-0.00008810,0.00041562,0.1959,4:43:00.000,2021-10-28 18:59:17
609,CCCV DChg,2,1,2,-0.00008810,0.00044352,0.1897,5:02:00.000,2021-10-28 19:18:17
647,CCCV DChg,2,1,2,-0.00008810,0.00047142,0.1829,5:21:00.000,2021-10-28 19:37:17
685,CCCV DChg,2,1,2,-0.00008810,0.00049932,0.1714,5:40:00.000,2021-10-28 19:56:17
723,CCCV DChg,2,1,2,-0.00008810,0.00052722,0.1565,5:59:00.000,2021-10-28 20:15:17
761,CCCV DChg,2,1,2,-0.00008810,0.00055511,0.1435,6:18:00.000,2021-10-28 20:34:17
799,CCCV DChg,2,1,2,-0.00008810,0.00058301,0.1329,6:37:00.000,2021-10-28 20:53:17
837,CCCV DChg,2,1,2,-0.00008810,0.00061091,0.1221,6:56:00.000,2021-10-28 21:12:17
875,CCCV DChg,2,1,2,-0.00008810,0.00063881,0.1137,7:15:00.000,2021-10-28 21:31:17
913,CCCV DChg,2,1,2,-0.00008810,0.00066671,0.1088,7:34:00.000,2021-10-28 21:50:17
951,CCCV DChg,2,1,2,-0.00008810,0.00069460,0.1063,7:53:00.000,2021-10-28 22:09:17
989,CCCV DChg,2,1,2,-0.00008810,0.00072250,0.1060,8:12:00.000,2021-10-28 22:28:17
1027,CCCV DChg,2,1,2,-0.00008810,0.00075039,0.1050,8:31:00.000,2021-10-28 22:47:17
1065,CCCV DChg,2,1,2,-0.00008804,0.00077828,0.1041,8:50:00.000,2021-10-28 23:06:17
1103,CCCV DChg,2,1,2,-0.00008804,0.00080618,0.1029,9:09:00.000,2021-10-28 23:25:17
1141,CCCV DChg,2,1,2,-0.00008804,0.00083407,0.1013,9:28:00.000,2021-10-28 23:44:17
1179,CCCV DChg,2,1,2,-0.00008804,0.00086196,0.0985,9:47:00.000,2021-10-29 00:03:17
1217,CCCV DChg,2,1,2,-0.00008810,0.00088985,0.0951,10:06:00.000,2021-10-29 00:22:17
1255,CCCV DChg,2,1,2,-0.00008810,0.00091774,0.0892,10:25:00.000,2021-10-29 00:41:17
1293,CCCV DChg,2,1,2,-0.00008810,0.00094563,0.0809,10:44:00.000,2021-10-29 01:00:17
1331,CCCV DChg,2,1,2,-0.00008810,0.00097352,0.0722,11:03:00.000,2021-10-29 01:19:17
1369,CCCV DChg,2,1,2,-0.00008804,0.00100140,0.0697,11:22:00.000,2021-10-29 01:38:17
1407,CCCV DChg,2,1,2,-0.00008810,0.00102929,0.0688,11:41:00.000,2021-10-29 01:57:17
1445,CCCV DChg,2,1,2,-0.00008804,0.00105717,0.0675,12:00:00.000,2021-10-29 02:16:17
1483,CCCV DChg,2,1,2,-0.00008804,0.00108506,0.0669,12:19:00.000,2021-10-29 02:35:17
1521,CCCV DChg,2,1,2,-0.00008810,0.00111295,0.0660,12:38:00.000,2021-10-29 02:54:17
1559,CCCV DChg,2,1,2,-0.00008804,0.00114083,0.0651,12:57:00.000,2021-10-29 03:13:17
1597,CCCV DChg,2,1,2,-0.00008804,0.00116872,0.0635,13:16:00.000,2021-10-29 03:32:17
1635,CCCV DChg,2,1,2,-0.00008804,0.00119660,0.0616,13:35:00.000,2021-10-29 03:51:17
1673,CCCV DChg,2,1,2,-0.00008804,0.00122448,0.0589,13:54:00.000,2021-10-29 04:10:17
1711,CCCV DChg,2,1,2,-0.00008804,0.00125236,0.0554,14:13:00.000,2021-10-29 04:29:17
1749,CCCV DChg,2,1,2,-0.00008810,0.00128025,0.0508,14:32:00.000,2021-10-29 04:48:17
1787,CCCV DChg,2,1,2,-0.00007105,0.00130586,0.0499,14:51:00.000,2021-10-29 05:07:17
1825,CCCV Chg,4,1,4,0.00008810,0.00002202,0.0973,0:15:00.000,2021-10-29 05:25:05
1863,CCCV Chg,4,1,4,0.00008810,0.00004992,0.1032,0:34:00.000,2021-10-29 05:44:05
1901,CCCV Chg,4,1,4,0.00008804,0.00007782,0.1057,0:53:00.000,2021-10-29 06:03:05
1939,CCCV Chg,4,1,4,0.00008810,0.00010572,0.1081,1:12:00.000,2021-10-29 06:22:05
1977,CCCV Chg,4,1,4,0.00008810,0.00013361,0.1100,1:31:00.000,2021-10-29 06:41:05
2015,CCCV Chg,4,1,4,0.00008810,0.00016151,0.1128,1:50:00.000,2021-10-29 07:00:05
2053,CCCV Chg,4,1,4,0.00008810,0.00018940,0.1168,2:09:00.000,2021-10-29 07:19:05
2091,CCCV Chg,4,1,4,0.00008810,0.00021730,0.1224,2:28:00.000,2021-10-29 07:38:05
2129,CCCV Chg,4,1,4,0.00008804,0.00024519,0.1289,2:47:00.000,2021-10-29 07:57:05
2167,CCCV Chg,4,1,4,0.00008810,0.00027309,0.1342,3:06:00.000,2021-10-29 08:16:05
2205,CCCV Chg,4,1,4,0.00008804,0.00030098,0.1382,3:25:00.000,2021-10-29 08:35:05
2243,CCCV Chg,4,1,4,0.00008810,0.00032887,0.1413,3:44:00.000,2021-10-29 08:54:05
2281,CCCV Chg,4,1,4,0.00008810,0.00035677,0.1432,4:03:00.000,2021-10-29 09:13:05
2319,CCCV Chg,4,1,4,0.00008804,0.00038466,0.1450,4:22:00.000,2021-10-29 09:32:05
2357,CCCV Chg,4,1,4,0.00008810,0.00041255,0.1460,4:41:00.000,2021-10-29 09:51:05
2395,CCCV Chg,4,1,4,0.00008810,0.00044045,0.1491,5:00:00.000,2021-10-29 10:10:05
2433,CCCV Chg,4,1,4,0.00008810,0.00046834,0.1537,5:19:00.000,2021-10-29 10:29:05
2471,CCCV Chg,4,1,4,0.00008810,0.00049624,0.1599,5:38:00.000,2021-10-29 10:48:05
2509,CCCV Chg,4,1,4,0.00008810,0.00052414,0.1705,5:57:00.000,2021-10-29 11:07:05
2547,CCCV Chg,4,1,4,0.00008810,0.00055204,0.1807,6:16:00.000,2021-10-29 11:26:05
2585,CCCV Chg,4,1,4,0.00008810,0.00057993,0.1971,6:35:00.000,2021-10-29 11:45:05
2623,CCCV Chg,4,1,4,0.00008810,0.00060783,0.2163,6:54:00.000,2021-10-29 12:04:05
2661,CCCV Chg,4,1,4,0.00008810,0.00063573,0.2294,7:13:00.000,2021-10-29 12:23:05
2699,CCCV Chg,4,1,4,0.00008810,0.00066363,0.2706,7:32:00.000,2021-10-29 12:42:05
2737,CCCV Chg,4,1,4,0.00008810,0.00069153,0.4532,7:51:00.000,2021-10-29 13:01:05
2775,CCCV Chg,4,1,4,0.00008810,0.00071943,0.9449,8:10:00.000,2021-10-29 13:20:05
2813,CCCV DChg,7,2,6,-0.00008810,0.00000734,0.6823,0:05:00.000,2021-10-29 13:37:41
2851,CCCV DChg,7,2,6,-0.00008810,0.00003524,0.3695,0:24:00.000,2021-10-29 13:56:41
2889,CCCV DChg,7,2,6,-0.00008810,0.00006314,0.2346,0:43:00.000,2021-10-29 14:15:41
2927,CCCV DChg,7,2,6,-0.00008810,0.00009104,0.1956,1:02:00.000,2021-10-29 14:34:41
2965,CCCV DChg,7,2,6,-0.00008810,0.00011894,0.1822,1:21:00.000,2021-10-29 14:53:41
3003,CCCV DChg,7,2,6,-0.00008804,0.00014683,0.1581,1:40:00.000,2021-10-29 15:12:41
3041,CCCV DChg,7,2,6,-0.00008810,0.00017473,0.1395,1:59:00.000,2021-10-29 15:31:41
3079,CCCV DChg,7,2,6,-0.00008810,0.00020263,0.1240,2:18:00.000,2021-10-29 15:50:41
3117,CCCV DChg,7,2,6,-0.00008810,0.00023053,0.1143,2:37:00.000,2021-10-29 16:09:41
3155,CCCV DChg,7,2,6,-0.00008810,0.00025843,0.1116,2:56:00.000,2021-10-29 16:28:41
3193,CCCV DChg,7,2,6,-0.00008810,0.00028632,0.1109,3:15:00.000,2021-10-29 16:47:41
3231,CCCV DChg,7,2,6,-0.00008810,0.00031422,0.1100,3:34:00.000,2021-10-29 17:06:41
3269,CCCV DChg,7,2,6,-0.00008810,0.00034212,0.1088,3:53:00.000,2021-10-29 17:25:41
3307,CCCV DChg,7,2,6,-0.00008810,0.00037001,0.1063,4:12:00.000,2021-10-29 17:44:41
3345,CCCV DChg,7,2,6,-0.00008810,0.00039791,0.1035,4:31:00.000,2021-10-29 18:03:42
3383,CCCV DChg,7,2,6,-0.00008810,0.00042580,0.0979,4:50:00.000,2021-10-29 18:22:42
3421,CCCV DChg,7,2,6,-0.00008804,0.00045369,0.0886,5:09:00.000,2021-10-29 18:41:42
3459,CCCV DChg,7,2,6,-0.00008804,0.00048158,0.0759,5:28:00.000,2021-10-29 19:00:42
3497,CCCV DChg,7,2,6,-0.00008804,0.00050946,0.0731,5:47:00.000,2021-10-29 19:19:42
3535,CCCV DChg,7,2,6,-0.00008810,0.00053735,0.0722,6:06:00.000,2021-10-29 19:38:42
3573,CCCV DChg,7,2,6,-0.00008804,0.00056524,0.0709,6:25:00.000,2021-10-29 19:57:42
3611,CCCV DChg,7,2,6,-0.00008804,0.00059312,0.0697,6:44:00.000,2021-10-29 20:16:42
3649,CCCV DChg,7,2,6,-0.00008810,0.00062101,0.0685,7:03:00.000,2021-10-29 20:35:42
3687,CCCV DChg,7,2,6,-0.00008804,0.00064889,0.0666,7:22:00.000,2021-10-29 20:54:42
3725,CCCV DChg,7,2,6,-0.00008804,0.00067678,0.0647,7:41:00.000,2021-10-29 21:13:42
3763,CCCV DChg,7,2,6,-0.00008804,0.00070466,0.0620,8:00:00.000,2021-10-29 21:32:42
3801,CCCV DChg,7,2,6,-0.00008804,0.00073254,0.0579,8:19:00.000,2021-10-29 21:51:42
3839,CCCV DChg,7,2,6,-0.00008810,0.00076043,0.0530,8:38:00.000,2021-10-29 22:10:42
3877,CCCV DChg,7,2,6,-0.00007105,0.00078669,0.0499,8:57:00.000,2021-10-29 22:29:42
3915,CCCV Chg,9,2,8,0.00008810,0.00002276,0.0936,0:15:30.000,2021-10-29 22:47:37
3953,CCCV Chg,9,2,8,0.00008810,0.00005066,0.0995,0:34:30.000,2021-10-29 23:06:37
3991,CCCV Chg,9,2,8,0.00008810,0.00007856,0.1019,0:53:30.000,2021-10-29 23:25:37
4029,CCCV Chg,9,2,8,0.00008810,0.00010645,0.1038,1:12:30.000,2021-10-29 23:44:37
4067,CCCV Chg,9,2,8,0.00008804,0.00013435,0.1057,1:31:30.000,2021-10-30 00:03:36
4105,CCCV Chg,9,2,8,0.00008810,0.00016225,0.1088,1:50:30.000,2021-10-30 00:22:36
4143,CCCV Chg,9,2,8,0.00008810,0.00019015,0.1122,2:09:30.000,2021-10-30 00:41:36
4181,CCCV Chg,9,2,8,0.00008810,0.00021805,0.1174,2:28:30.000,2021-10-30 01:00:36
4219,CCCV Chg,9,2,8,0.00008810,0.00024594,0.1240,2:47:30.000,2021-10-30 01:19:36
4257,CCCV Chg,9,2,8,0.00008810,0.00027384,0.1298,3:06:30.000,2021-10-30 01:38:36
4295,CCCV Chg,9,2,8,0.00008810,0.00030174,0.1345,3:25:30.000,2021-10-30 01:57:36
4333,CCCV Chg,9,2,8,0.00008810,0.00032964,0.1379,3:44:30.000,2021-10-30 02:16:36
4371,CCCV Chg,9,2,8,0.00008810,0.00035753,0.1404,4:03:30.000,2021-10-30 02:35:36
4409,CCCV Chg,9,2,8,0.00008810,0.00038543,0.1422,4:22:30.000,2021-10-30 02:54:36
4447,CCCV Chg,9,2,8,0.00008810,0.00041332,0.1441,4:41:30.000,2021-10-30 03:13:36
4485,CCCV Chg,9,2,8,0.00008810,0.00044122,0.1472,5:00:30.000,2021-10-30 03:32:36
4523,CCCV Chg,9,2,8,0.00008810,0.00046912,0.1509,5:19:30.000,2021-10-30 03:51:36
4561,CCCV Chg,9,2,8,0.00008810,0.00049701,0.1565,5:38:30.000,2021-10-30 04:10:36
4599,CCCV Chg,9,2,8,0.00008810,0.00052491,0.1658,5:57:30.000,2021-10-30 04:29:36
4637,CCCV Chg,9,2,8,0.00008810,0.00055281,0.1757,6:16:30.000,2021-10-30 04:48:36
4675,CCCV Chg,9,2,8,0.00008810,0.00058070,0.1900,6:35:30.000,2021-10-30 05:07:36
4713,CCCV Chg,9,2,8,0.00008804,0.00060860,0.2067,6:54:30.000,2021-10-30 05:26:36
4751,CCCV Chg,9,2,8,0.00008810,0.00063649,0.2266,7:13:30.000,2021-10-30 05:45:36
4789,CCCV Chg,9,2,8,0.00008810,0.00066439,0.2396,7:32:30.000,2021-10-30 06:04:36
4827,CCCV Chg,9,2,8,0.00008810,0.00069228,0.3723,7:51:30.000,2021-10-30 06:23:36
4865,CCCV Chg,9,2,8,0.00008810,0.00072018,0.6944,8:10:30.000,2021-10-30 06:42:36
4903,CCCV DChg,12,3,10,-0.00008798,0.00000000,1.1182,0:00:00.000,2021-10-30 07:00:26
4941,CCCV DChg,12,3,10,-0.00008810,0.00002790,0.4185,0:19:00.000,2021-10-30 07:19:26
4979,CCCV DChg,12,3,10,-0.00008810,0.00005580,0.2573,0:38:00.000,2021-10-30 07:38:26
5017,CCCV DChg,12,3,10,-0.00008810,0.00008369,0.1974,0:57:00.000,2021-10-30 07:57:26
5055,CCCV DChg,12,3,10,-0.00008810,0.00011158,0.1853,1:16:00.000,2021-10-30 08:16:26
5093,CCCV DChg,12,3,10,-0.00008810,0.00013947,0.1612,1:35:00.000,2021-10-30 08:35:26
5131,CCCV DChg,12,3,10,-0.00008804,0.00016736,0.1407,1:54:00.000,2021-10-30 08:54:26
5169,CCCV DChg,12,3,10,-0.00008810,0.00019525,0.1252,2:13:00.000,2021-10-30 09:13:26
5207,CCCV DChg,12,3,10,-0.00008810,0.00022314,0.1147,2:32:00.000,2021-10-30 09:32:26
5245,CCCV DChg,12,3,10,-0.00008804,0.00025103,0.1119,2:51:00.000,2021-10-30 09:51:26
5283,CCCV DChg,12,3,10,-0.00008810,0.00027892,0.1112,3:10:00.000,2021-10-30 10:10:26
5321,CCCV DChg,12,3,10,-0.00008804,0.00030680,0.1103,3:29:00.000,2021-10-30 10:29:26
5359,CCCV DChg,12,3,10,-0.00008804,0.00033469,0.1091,3:48:00.000,2021-10-30 10:48:26
5397,CCCV DChg,12,3,10,-0.00008804,0.00036258,0.1066,4:07:00.000,2021-10-30 11:07:26
5435,CCCV DChg,12,3,10,-0.00008810,0.00039046,0.1035,4:26:00.000,2021-10-30 11:26:26
5473,CCCV DChg,12,3,10,-0.00008810,0.00041835,0.0976,4:45:00.000,2021-10-30 11:45:26
5511,CCCV DChg,12,3,10,-0.00008804,0.00044623,0.0871,5:04:00.000,2021-10-30 12:04:26
5549,CCCV DChg,12,3,10,-0.00008804,0.00047412,0.0753,5:23:00.000,2021-10-30 12:23:26
5587,CCCV DChg,12,3,10,-0.00008804,0.00050200,0.0734,5:42:00.000,2021-10-30 12:42:26
5625,CCCV DChg,12,3,10,-0.00008804,0.00052988,0.0725,6:01:00.000,2021-10-30 13:01:26
5663,CCCV DChg,12,3,10,-0.00008810,0.00055776,0.0716,6:20:00.000,2021-10-30 13:20:26
5701,CCCV DChg,12,3,10,-0.00008804,0.00058565,0.0703,6:39:00.000,2021-10-30 13:39:26
5739,CCCV DChg,12,3,10,-0.00008804,0.00061353,0.0691,6:58:00.000,2021-10-30 13:58:26
5777,CCCV DChg,12,3,10,-0.00008804,0.00064141,0.0669,7:17:00.000,2021-10-30 14:17:26
5815,CCCV DChg,12,3,10,-0.00008804,0.00066930,0.0647,7:36:00.000,2021-10-30 14:36:26
5853,CCCV DChg,12,3,10,-0.00008804,0.00069718,0.0616,7:55:00.000,2021-10-30 14:55:26
5891,CCCV DChg,12,3,10,-0.00008804,0.00072506,0.0573,8:14:00.000,2021-10-30 15:14:26
5929,CCCV DChg,12,3,10,-0.00008804,0.00075295,0.0514,8:33:00.000,2021-10-30 15:33:26
5967,CCCV Chg,14,3,12,0.00008810,0.00000440,0.0802,0:03:00.000,2021-10-30 15:51:04
6005,CCCV Chg,14,3,12,0.00008810,0.00003230,0.0951,0:22:00.000,2021-10-30 16:10:04
6043,CCCV Chg,14,3,12,0.00008810,0.00006020,0.0995,0:41:00.000,2021-10-30 16:29:04
6081,CCCV Chg,14,3,12,0.00008810,0.00008810,0.1016,1:00:00.000,2021-10-30 16:48:04
6119,CCCV Chg,14,3,12,0.00008810,0.00011600,0.1035,1:19:00.000,2021-10-30 17:07:04
6157,CCCV Chg,14,3,12,0.00008810,0.00014390,0.1057,1:38:00.000,2021-10-30 17:26:04
6195,CCCV Chg,14,3,12,0.00008810,0.00017179,0.1091,1:57:00.000,2021-10-30 17:45:04
6233,CCCV Chg,14,3,12,0.00008810,0.00019969,0.1128,2:16:00.000,2021-10-30 18:04:04
6271,CCCV Chg,14,3,12,0.00008810,0.00022759,0.1187,2:35:00.000,2021-10-30 18:23:04
6309,CCCV Chg,14,3,12,0.00008810,0.00025549,0.1255,2:54:00.000,2021-10-30 18:42:04
6347,CCCV Chg,14,3,12,0.00008810,0.00028339,0.1311,3:13:00.000,2021-10-30 19:01:04
6385,CCCV Chg,14,3,12,0.00008810,0.00031128,0.1354,3:32:00.000,2021-10-30 19:20:04
6423,CCCV Chg,14,3,12,0.00008810,0.00033918,0.1379,3:51:00.000,2021-10-30 19:39:04
6461,CCCV Chg,14,3,12,0.00008810,0.00036708,0.1407,4:10:00.000,2021-10-30 19:58:04
6499,CCCV Chg,14,3,12,0.00008810,0.00039497,0.1426,4:29:00.000,2021-10-30 20:17:04
6537,CCCV Chg,14,3,12,0.00008810,0.00042287,0.1444,4:48:00.000,2021-10-30 20:36:04
6575,CCCV Chg,14,3,12,0.00008810,0.00045077,0.1478,5:07:00.000,2021-10-30 20:55:04
6613,CCCV Chg,14,3,12,0.00008810,0.00047867,0.1519,5:26:00.000,2021-10-30 21:14:04
6651,CCCV Chg,14,3,12,0.00008810,0.00050656,0.1584,5:45:00.000,2021-10-30 21:33:04
6689,CCCV Chg,14,3,12,0.00008810,0.00053446,0.1686,6:04:00.000,2021-10-30 21:52:04
6727,CCCV Chg,14,3,12,0.00008810,0.00056235,0.1791,6:23:00.000,2021-10-30 22:11:04
6765,CCCV Chg,14,3,12,0.00008810,0.00059025,0.1953,6:42:00.000,2021-10-30 22:30:04
6803,CCCV Chg,14,3,12,0.00008810,0.00061815,0.2139,7:01:00.000,2021-10-30 22:49:04
6841,CCCV Chg,14,3,12,0.00008810,0.00064604,0.2284,7:20:00.000,2021-10-30 23:08:04
6879,CCCV Chg,14,3,12,0.00008810,0.00067394,0.2638,7:39:00.000,2021-10-30 23:27:04
6917,CCCV Chg,14,3,12,0.00008804,0.00070184,0.4442,7:58:00.000,2021-10-30 23:46:04
6955,CCCV Chg,14,3,12,0.00008810,0.00072973,0.9619,8:17:00.000,2021-10-31 00:05:03
6993,CCCV DChg,17,3,14,-0.00022067,0.00002391,0.4330,0:06:30.000,2021-10-31 00:22:41
7031,CCCV DChg,17,3,14,-0.00022067,0.00009379,0.1832,0:25:30.000,2021-10-31 00:41:41
7069,CCCV DChg,17,3,14,-0.00022067,0.00016366,0.1314,0:44:30.000,2021-10-31 01:00:41
7107,CCCV DChg,17,3,14,-0.00022067,0.00023354,0.1029,1:03:30.000,2021-10-31 01:19:41
7145,CCCV DChg,17,3,14,-0.00022067,0.00030342,0.0985,1:22:30.000,2021-10-31 01:38:41
7183,CCCV DChg,17,3,14,-0.00022067,0.00037330,0.0902,1:41:30.000,2021-10-31 01:57:41
7221,CCCV DChg,17,3,14,-0.00022067,0.00044318,0.0694,2:00:30.000,2021-10-31 02:16:41
7259,CCCV DChg,17,3,14,-0.00022061,0.00051305,0.0598,2:19:30.000,2021-10-31 02:35:41
7297,CCCV DChg,17,3,14,-0.00022067,0.00058293,0.0527,2:38:30.000,2021-10-31 02:54:41
7335,CCCV DChg,17,3,14,-0.00016251,0.00064513,0.0499,2:57:30.000,2021-10-31 03:13:41
7373,CCCV DChg,17,3,14,-0.00012369,0.00068980,0.0499,3:16:30.000,2021-10-31 03:32:41
7411,CCCV DChg,17,3,14,-0.00009492,0.00072429,0.0499,3:35:30.000,2021-10-31 03:51:41
7449,CCCV DChg,17,3,14,-0.00007186,0.00075055,0.0499,3:54:30.000,2021-10-31 04:10:41
7487,CCCV DChg,17,3,14,-0.00005462,0.00077043,0.0499,4:13:30.000,2021-10-31 04:29:41
7525,CCCV DChg,17,3,14,-0.00004185,0.00078563,0.0499,4:32:30.000,2021-10-31 04:48:41
7563,CCCV DChg,17,3,14,-0.00003211,0.00079728,0.0499,4:51:30.000,2021-10-31 05:07:41
7601,CCCV DChg,17,3,14,-0.00002498,0.00080627,0.0499,5:10:30.000,2021-10-31 05:26:41
7639,Rest,18,3,15,0.00000000,0.00000000,0.0533,0:00:30.000,2021-10-31 05:44:59
7677,CCCV Chg,19,3,16,0.00022073,0.00006438,0.1106,0:17:30.000,2021-10-31 06:03:29
7715,CCCV Chg,19,3,16,0.00022073,0.00013428,0.1171,0:36:30.000,2021-10-31 06:22:29
7753,CCCV Chg,19,3,16,0.00022073,0.00020418,0.1277,0:55:30.000,2021-10-31 06:41:29
7791,CCCV Chg,19,3,16,0.00022073,0.00027407,0.1410,1:14:30.000,2021-10-31 07:00:29
7829,CCCV Chg,19,3,16,0.00022073,0.00034397,0.1488,1:33:30.000,2021-10-31 07:19:29
7867,CCCV Chg,19,3,16,0.00022073,0.00041387,0.1553,1:52:30.000,2021-10-31 07:38:29
7905,CCCV Chg,19,3,16,0.00022073,0.00048377,0.1636,2:11:30.000,2021-10-31 07:57:29
7943,CCCV Chg,19,3,16,0.00022073,0.00055366,0.1782,2:30:30.000,2021-10-31 08:16:29
7981,CCCV Chg,19,3,16,0.00022073,0.00062356,0.2021,2:49:30.000,2021-10-31 08:35:29
8019,CCCV Chg,19,3,16,0.00022073,0.00069346,0.2396,3:08:30.000,2021-10-31 08:54:29
8057,CCCV Chg,19,3,16,0.00022073,0.00076336,0.6498,3:27:30.000,2021-10-31 09:13:29
8095,CCCV Chg,19,3,16,0.00002628,0.00079639,1.3008,3:46:30.000,2021-10-31 09:32:29
8133,CCCV DChg,22,4,18,-0.00022067,0.00003862,0.3422,0:10:30.000,2021-10-31 09:50:04
8171,CCCV DChg,22,4,18,-0.00022067,0.00010850,0.1785,0:29:30.000,2021-10-31 09:09:04
8209,CCCV DChg,22,4,18,-0.00022067,0.00017838,0.1261,0:48:30.000,2021-10-31 09:28:04
8247,CCCV DChg,22,4,18,-0.00022067,0.00024825,0.1035,1:07:30.000,2021-10-31 09:47:04
8285,CCCV DChg,22,4,18,-0.00022067,0.00031813,0.0992,1:26:30.000,2021-10-31 10:06:04
8323,CCCV DChg,22,4,18,-0.00022067,0.00038801,0.0902,1:45:30.000,2021-10-31 10:25:04
8361,CCCV DChg,22,4,18,-0.00022067,0.00045789,0.0691,2:04:30.000,2021-10-31 10:44:04
8399,CCCV DChg,22,4,18,-0.00022067,0.00052777,0.0623,2:23:30.000,2021-10-31 11:03:04
8437,CCCV DChg,22,4,18,-0.00022067,0.00059764,0.0561,2:42:30.000,2021-10-31 11:22:04
8475,CCCV DChg,22,4,18,-0.00018923,0.00066603,0.0499,3:01:30.000,2021-10-31 11:41:04
8513,CCCV DChg,22,4,18,-0.00012251,0.00071420,0.0499,3:20:30.000,2021-10-31 12:00:04
8551,CCCV DChg,22,4,18,-0.00008723,0.00074690,0.0499,3:39:30.000,2021-10-31 12:19:04
8589,CCCV DChg,22,4,18,-0.00006398,0.00077066,0.0499,3:58:30.000,2021-10-31 12:38:04
8627,CCCV DChg,22,4,18,-0.00004706,0.00078812,0.0499,4:17:30.000,2021-10-31 12:57:04
8665,CCCV DChg,22,4,18,-0.00003435,0.00080093,0.0499,4:36:30.000,2021-10-31 13:16:04
8703,CCCV DChg,22,4,18,-0.00002542,0.00081026,0.0499,4:55:30.000,2021-10-31 13:35:04
8741,CCCV Chg,24,4,20,0.00022054,0.00000000,0.0632,0:00:00.000,2021-10-31 13:52:35
8779,CCCV Chg,24,4,20,0.00022073,0.00006990,0.1060,0:19:00.000,2021-10-31 14:11:35
8817,CCCV Chg,24,4,20,0.00022073,0.00013980,0.1128,0:38:00.000,2021-10-31 14:30:35
8855,CCCV Chg,24,4,20,0.00022079,0.00020970,0.1230,0:57:00.000,2021-10-31 14:49:35
8893,CCCV Chg,24,4,20,0.00022079,0.00027961,0.1367,1:16:00.000,2021-10-31 15:08:35
8931,CCCV Chg,24,4,20,0.00022073,0.00034951,0.1444,1:35:00.000,2021-10-31 15:27:35
8969,CCCV Chg,24,4,20,0.00022073,0.00041942,0.1503,1:54:00.000,2021-10-31 15:46:35
9007,CCCV Chg,24,4,20,0.00022079,0.00048933,0.1584,2:13:00.000,2021-10-31 16:05:35
9045,CCCV Chg,24,4,20,0.00022073,0.00055924,0.1739,2:32:00.000,2021-10-31 16:24:35
9083,CCCV Chg,24,4,20,0.00022073,0.00062914,0.2005,2:51:00.000,2021-10-31 16:43:35
9121,CCCV Chg,24,4,20,0.00022079,0.00069905,0.2402,3:10:00.000,2021-10-31 17:02:35
9159,CCCV Chg,24,4,20,0.00022073,0.00076896,0.8072,3:29:00.000,2021-10-31 17:21:35
9197,CCCV Chg,24,4,20,0.00002374,0.00079641,1.3008,3:48:00.000,2021-10-31 17:40:35
9235,CCCV DChg,27,5,22,-0.00022067,0.00004598,0.3031,0:12:30.000,2021-10-31 17:58:17
9273,CCCV DChg,27,5,22,-0.00022067,0.00011586,0.1748,0:31:30.000,2021-10-31 18:17:17
9311,CCCV DChg,27,5,22,-0.00022067,0.00018574,0.1227,0:50:30.000,2021-10-31 18:36:17
9349,CCCV DChg,27,5,22,-0.00022067,0.00025562,0.1038,1:09:30.000,2021-10-31 18:55:17
9387,CCCV DChg,27,5,22,-0.00022067,0.00032550,0.1001,1:28:30.000,2021-10-31 19:14:17
9425,CCCV DChg,27,5,22,-0.00022067,0.00039538,0.0899,1:47:30.000,2021-10-31 19:33:17
9463,CCCV DChg,27,5,22,-0.00022067,0.00046526,0.0688,2:06:30.000,2021-10-31 19:52:17
9501,CCCV DChg,27,5,22,-0.00022067,0.00053514,0.0626,2:25:30.000,2021-10-31 20:11:17
9539,CCCV DChg,27,5,22,-0.00022067,0.00060501,0.0564,2:44:30.000,2021-10-31 20:30:17
9577,CCCV DChg,27,5,22,-0.00018644,0.00067330,0.0499,3:03:30.000,2021-10-31 20:49:17
9615,CCCV DChg,27,5,22,-0.00011731,0.00071999,0.0499,3:22:30.000,2021-10-31 21:08:17
9653,CCCV DChg,27,5,22,-0.00008227,0.00075105,0.0499,3:41:30.000,2021-10-31 21:27:17
9691,CCCV DChg,27,5,22,-0.00005921,0.00077324,0.0499,4:00:30.000,2021-10-31 21:46:17
9729,CCCV DChg,27,5,22,-0.00004272,0.00078925,0.0499,4:19:30.000,2021-10-31 22:05:17
9767,CCCV DChg,27,5,22,-0.00003056,0.00080073,0.0499,4:38:30.000,2021-10-31 22:24:17
9805,CCCV DChg,27,5,22,-0.00002207,0.00080897,0.0499,4:57:30.000,2021-10-31 22:43:17
9843,CCCV Chg,29,5,24,0.00022073,0.00003863,0.1007,0:10:30.000,2021-10-31 23:01:07
9881,CCCV Chg,29,5,24,0.00022073,0.00010853,0.1103,0:29:30.000,2021-10-31 23:20:07
9919,CCCV Chg,29,5,24,0.00022073,0.00017842,0.1190,0:48:30.000,2021-10-31 23:39:07
9957,CCCV Chg,29,5,24,0.00022073,0.00024832,0.1329,1:07:30.000,2021-10-31 23:58:07
9995,CCCV Chg,29,5,24,0.00022073,0.00031822,0.1438,1:26:30.000,2021-11-01 00:17:08
10033,CCCV Chg,29,5,24,0.00022073,0.00038812,0.1503,1:45:30.000,2021-11-01 00:36:08
10071,CCCV Chg,29,5,24,0.00022073,0.00045801,0.1574,2:04:30.000,2021-11-01 00:55:08
10109,CCCV Chg,29,5,24,0.00022073,0.00052791,0.1695,2:23:30.000,2021-11-01 01:14:08
10147,CCCV Chg,29,5,24,0.00022073,0.00059781,0.1888,2:42:30.000,2021-11-01 01:33:08
10185,CCCV Chg,29,5,24,0.00022073,0.00066771,0.2300,3:01:30.000,2021-11-01 01:52:08
10223,CCCV Chg,29,5,24,0.00022073,0.00073761,0.3968,3:20:30.000,2021-11-01 02:11:08
10261,CCCV Chg,29,5,24,0.00003782,0.00078863,1.3008,3:39:30.000,2021-11-01 02:30:08
10299,CCCV DChg,32,6,26,-0.00022067,0.00002207,0.4668,0:06:00.000,2021-11-01 02:47:40
10337,CCCV DChg,32,6,26,-0.00022067,0.00009195,0.1866,0:25:00.000,2021-11-01 03:06:40
10375,CCCV DChg,32,6,26,-0.00022067,0.00016183,0.1342,0:44:00.000,2021-11-01 03:25:40
10413,CCCV DChg,32,6,26,-0.00022067,0.00023171,0.1044,1:03:00.000,2021-11-01 03:44:40
10451,CCCV DChg,32,6,26,-0.00022067,0.00030158,0.1004,1:22:00.000,2021-11-01 04:03:40
10489,CCCV DChg,32,6,26,-0.00022067,0.00037146,0.0930,1:41:00.000,2021-11-01 04:22:40
10527,CCCV DChg,32,6,26,-0.00022067,0.00044134,0.0713,2:00:00.000,2021-11-01 04:41:40
10565,CCCV DChg,32,6,26,-0.00022067,0.00051122,0.0632,2:19:00.000,2021-11-01 05:00:40
10603,CCCV DChg,32,6,26,-0.00022061,0.00058110,0.0570,2:38:00.000,2021-11-01 05:19:40
10641,CCCV DChg,32,6,26,-0.00020362,0.00065062,0.0499,2:57:00.000,2021-11-01 05:38:40
10679,CCCV DChg,32,6,26,-0.00012741,0.00070153,0.0499,3:16:00.000,2021-11-01 05:57:40
10717,CCCV DChg,32,6,26,-0.00008897,0.00073522,0.0499,3:35:00.000,2021-11-01 06:16:40
10755,CCCV DChg,32,6,26,-0.00006504,0.00075937,0.0499,3:54:00.000,2021-11-01 06:35:40
10793,CCCV DChg,32,6,26,-0.00004743,0.00077701,0.0499,4:13:00.000,2021-11-01 06:54:40
10831,CCCV DChg,32,6,26,-0.00003416,0.00078984,0.0499,4:32:00.000,2021-11-01 07:13:40
10869,CCCV DChg,32,6,26,-0.00002461,0.00079908,0.0499,4:51:00.000,2021-11-01 07:32:40
10907,CCCV Chg,34,6,28,0.00022073,0.00001288,0.0905,0:03:30.000,2021-11-01 07:50:14
10945,CCCV Chg,34,6,28,0.00022073,0.00008277,0.1081,0:22:30.000,2021-11-01 08:09:14
10983,CCCV Chg,34,6,28,0.00022073,0.00015267,0.1162,0:41:30.000,2021-11-01 08:28:14
11021,CCCV Chg,34,6,28,0.00022073,0.00022257,0.1283,1:00:30.000,2021-11-01 08:47:14
11059,CCCV Chg,34,6,28,0.00022073,0.00029247,0.1410,1:19:30.000,2021-11-01 09:06:14
11097,CCCV Chg,34,6,28,0.00022073,0.00036237,0.1484,1:38:30.000,2021-11-01 09:25:14
11135,CCCV Chg,34,6,28,0.00022073,0.00043226,0.1550,1:57:30.000,2021-11-01 09:44:14
11173,CCCV Chg,34,6,28,0.00022073,0.00050216,0.1649,2:16:30.000,2021-11-01 10:03:14
11211,CCCV Chg,34,6,28,0.00022073,0.00057206,0.1810,2:35:30.000,2021-11-01 10:22:14
11249,CCCV Chg,34,6,28,0.00022073,0.00064196,0.2120,2:54:30.000,2021-11-01 10:41:14
11287,CCCV Chg,34,6,28,0.00022073,0.00071185,0.2706,3:13:30.000,2021-11-01 11:00:14
11325,CCCV Chg,34,6,28,0.00009375,0.00077939,1.3008,3:32:30.000,2021-11-01 11:19:14
11363,CCCV DChg,37,7,30,-0.00022067,0.00000184,0.8872,0:00:30.000,2021-11-01 11:37:11
11401,CCCV DChg,37,7,30,-0.00022067,0.00007172,0.1959,0:19:30.000,2021-11-01 11:56:11
11439,CCCV DChg,37,7,30,-0.00022067,0.00014160,0.1475,0:38:30.000,2021-11-01 12:15:11
11477,CCCV DChg,37,7,30,-0.00022067,0.00021148,0.1081,0:57:30.000,2021-11-01 12:34:11
11515,CCCV DChg,37,7,30,-0.00022067,0.00028136,0.1013,1:16:30.000,2021-11-01 12:53:11
11553,CCCV DChg,37,7,30,-0.00022067,0.00035123,0.0954,1:35:30.000,2021-11-01 13:12:11
11591,CCCV DChg,37,7,30,-0.00022067,0.00042111,0.0781,1:54:30.000,2021-11-01 13:31:11
11629,CCCV DChg,37,7,30,-0.00022067,0.00049099,0.0641,2:13:30.000,2021-11-01 13:50:11
11667,CCCV DChg,37,7,30,-0.00022067,0.00056087,0.0585,2:32:30.000,2021-11-01 14:09:11
11705,CCCV DChg,37,7,30,-0.00022067,0.00063075,0.0508,2:51:30.000,2021-11-01 14:28:11
11743,CCCV DChg,37,7,30,-0.00014161,0.00068781,0.0499,3:10:30.000,2021-11-01 14:47:11
11781,CCCV DChg,37,7,30,-0.00009790,0.00072502,0.0499,3:29:30.000,2021-11-01 15:06:11
11819,CCCV DChg,37,7,30,-0.00007062,0.00075145,0.0499,3:48:30.000,2021-11-01 15:25:11
11857,CCCV DChg,37,7,30,-0.00005109,0.00077057,0.0499,4:07:30.000,2021-11-01 15:44:11
11895,CCCV DChg,37,7,30,-0.00003652,0.00078431,0.0499,4:26:30.000,2021-11-01 16:03:11
11933,CCCV DChg,37,7,30,-0.00002591,0.00079408,0.0499,4:45:30.000,2021-11-01 16:22:11
11971,CCCV Chg,39,7,32,0.00022073,0.00000736,0.0861,0:02:00.000,2021-11-01 16:40:09
12009,CCCV Chg,39,7,32,0.00022073,0.00007726,0.1078,0:21:00.000,2021-11-01 16:59:09
12047,CCCV Chg,39,7,32,0.00022073,0.00014715,0.1162,0:40:00.000,2021-11-01 17:18:09
12085,CCCV Chg,39,7,32,0.00022073,0.00021705,0.1283,0:59:00.000,2021-11-01 17:37:09
12123,CCCV Chg,39,7,32,0.00022073,0.00028695,0.1410,1:18:00.000,2021-11-01 17:56:09
12161,CCCV Chg,39,7,32,0.00022073,0.00035685,0.1484,1:37:00.000,2021-11-01 18:15:09
12199,CCCV Chg,39,7,32,0.00022073,0.00042674,0.1553,1:56:00.000,2021-11-01 18:34:09
12237,CCCV Chg,39,7,32,0.00022073,0.00049664,0.1646,2:15:00.000,2021-11-01 18:53:09
12275,CCCV Chg,39,7,32,0.00022073,0.00056654,0.1807,2:34:00.000,2021-11-01 19:12:09
12313,CCCV Chg,39,7,32,0.00022073,0.00063644,0.2108,2:53:00.000,2021-11-01 19:31:09
12351,CCCV Chg,39,7,32,0.00022073,0.00070634,0.2622,3:12:00.000,2021-11-01 19:50:09
12389,CCCV Chg,39,7,32,0.00012022,0.00077527,1.3008,3:31:00.000,2021-11-01 20:09:09
12427,Rest,41,7,33,0.00000000,0.00000000,1.2103,0:01:30.000,2021-11-01 20:27:10
12465,CCCV DChg,42,7,34,-0.00044159,0.00013616,0.1333,0:18:30.000,2021-11-01 20:45:40
12503,CCCV DChg,42,7,34,-0.00044159,0.00027600,0.0843,0:37:30.000,2021-11-01 21:04:40
12541,CCCV DChg,42,7,34,-0.00044159,0.00041583,0.0582,0:56:30.000,2021-11-01 21:23:40
12579,CCCV DChg,42,7,34,-0.00030729,0.00054024,0.0499,1:15:30.000,2021-11-01 21:42:40
12617,CCCV DChg,42,7,34,-0.00020058,0.00061913,0.0499,1:34:30.000,2021-11-01 22:01:40
12655,CCCV DChg,42,7,34,-0.00014019,0.00067204,0.0499,1:53:30.000,2021-11-01 22:20:40
12693,CCCV DChg,42,7,34,-0.00010435,0.00071049,0.0499,2:12:30.000,2021-11-01 22:39:40
12731,CCCV DChg,42,7,34,-0.00007725,0.00073907,0.0499,2:31:30.000,2021-11-01 22:58:40
12769,CCCV DChg,42,7,34,-0.00005667,0.00076013,0.0499,2:50:30.000,2021-11-01 23:17:40
12807,CCCV Chg,44,7,36,0.00044171,0.00001104,0.1150,0:01:30.000,2021-11-01 23:35:36
12845,CCCV Chg,44,7,36,0.00044171,0.00015092,0.1398,0:20:30.000,2021-11-01 23:54:36
12883,CCCV Chg,44,7,36,0.00044171,0.00029081,0.1618,0:39:30.000,2021-11-02 00:13:36
12921,CCCV Chg,44,7,36,0.00044177,0.00043069,0.1788,0:58:30.000,2021-11-02 00:32:36
12959,CCCV Chg,44,7,36,0.00044171,0.00057057,0.2114,1:17:30.000,2021-11-02 00:51:36
12997,CCCV Chg,44,7,36,0.00044171,0.00071045,0.4352,1:36:30.000,2021-11-02 01:10:36
13035,CCCV DChg,47,8,38,-0.00044159,0.00002944,0.3524,0:04:00.000,2021-11-02 01:28:21
13073,CCCV DChg,47,8,38,-0.00044159,0.00016928,0.1085,0:23:00.000,2021-11-02 01:47:21
13111,CCCV DChg,47,8,38,-0.00044159,0.00030912,0.0806,0:42:00.000,2021-11-02 02:06:21
13149,CCCV DChg,47,8,38,-0.00044159,0.00044896,0.0527,1:01:00.000,2021-11-02 02:25:21
13187,CCCV DChg,47,8,38,-0.00027759,0.00056182,0.0499,1:20:00.000,2021-11-02 02:44:21
13225,CCCV DChg,47,8,38,-0.00018241,0.00063346,0.0499,1:39:00.000,2021-11-02 03:03:21
13263,CCCV DChg,47,8,38,-0.00012630,0.00068144,0.0499,1:58:00.000,2021-11-02 03:22:21
13301,CCCV DChg,47,8,38,-0.00009226,0.00071574,0.0499,2:17:00.000,2021-11-02 03:41:21
13339,CCCV DChg,47,8,38,-0.00006715,0.00074082,0.0499,2:36:00.000,2021-11-02 04:00:21
13377,CCCV DChg,47,8,38,-0.00004836,0.00075897,0.0499,2:55:00.000,2021-11-02 04:19:21
13415,CCCV Chg,49,8,40,0.00044171,0.00008098,0.1274,0:11:00.000,2021-11-02 04:37:15
13453,CCCV Chg,49,8,40,0.00044171,0.00022086,0.1528,0:30:00.000,2021-11-02 04:56:15
13491,CCCV Chg,49,8,40,0.00044171,0.00036074,0.1702,0:49:00.000,2021-11-02 05:15:15
13529,CCCV Chg,49,8,40,0.00044171,0.00050061,0.1919,1:08:00.000,2021-11-02 05:34:15
13567,CCCV Chg,49,8,40,0.00044171,0.00064049,0.2483,1:27:00.000,2021-11-02 05:53:15
13605,CCCV Chg,49,8,40,0.00005890,0.00075287,1.3008,1:46:00.000,2021-11-02 06:12:15
13643,CCCV DChg,52,9,42,-0.00044159,0.00010304,0.1568,0:14:00.000,2021-11-02 06:30:10
13681,CCCV DChg,52,9,42,-0.00044159,0.00024288,0.0871,0:33:00.000,2021-11-02 06:49:10
13719,CCCV DChg,52,9,42,-0.00044159,0.00038271,0.0638,0:52:00.000,2021-11-02 07:08:10
13757,CCCV DChg,52,9,42,-0.00033655,0.00051419,0.0499,1:11:00.000,2021-11-02 07:27:10
13795,CCCV DChg,52,9,42,-0.00021850,0.00060027,0.0499,1:30:00.000,2021-11-02 07:46:10
13833,CCCV DChg,52,9,42,-0.00014738,0.00065720,0.0499,1:49:00.000,2021-11-02 08:05:10
13871,CCCV DChg,52,9,42,-0.00010652,0.00069685,0.0499,2:08:00.000,2021-11-02 08:24:10
13909,CCCV DChg,52,9,42,-0.00007855,0.00072597,0.0499,2:27:00.000,2021-11-02 08:43:10
13947,CCCV DChg,52,9,42,-0.00005679,0.00074731,0.0499,2:46:00.000,2021-11-02 09:02:10
13985,CCCV Chg,54,9,44,0.00044177,0.00001841,0.1143,0:02:30.000,2021-11-02 09:20:09
14023,CCCV Chg,54,9,44,0.00044171,0.00015829,0.1395,0:21:30.000,2021-11-02 09:39:09
14061,CCCV Chg,54,9,44,0.00044171,0.00029817,0.1615,0:40:30.000,2021-11-02 09:58:09
14099,CCCV Chg,54,9,44,0.00044171,0.00043806,0.1795,0:59:30.000,2021-11-02 10:17:09
14137,CCCV Chg,54,9,44,0.00044177,0.00057794,0.2151,1:18:30.000,2021-11-02 10:36:09
14175,CCCV Chg,54,9,44,0.00044171,0.00071783,0.5846,1:37:30.000,2021-11-02 10:55:09
14213,CCCV DChg,57,10,46,-0.00044159,0.00004048,0.2771,0:05:30.000,2021-11-02 11:12:47
14251,CCCV DChg,57,10,46,-0.00044159,0.00018033,0.1013,0:24:30.000,2021-11-02 11:31:47
14289,CCCV DChg,57,10,46,-0.00044159,0.00032016,0.0793,0:43:30.000,2021-11-02 11:50:47
14327,CCCV DChg,57,10,46,-0.00044159,0.00046000,0.0508,1:02:30.000,2021-11-02 12:09:47
14365,CCCV DChg,57,10,46,-0.00027058,0.00056959,0.0499,1:21:30.000,2021-11-02 12:28:47
14403,CCCV DChg,57,10,46,-0.00017664,0.00063909,0.0499,1:40:30.000,2021-11-02 12:47:47
14441,CCCV DChg,57,10,46,-0.00012369,0.00068588,0.0499,1:59:30.000,2021-11-02 13:06:47
14479,CCCV DChg,57,10,46,-0.00008866,0.00071924,0.0499,2:18:30.000,2021-11-02 13:25:47
14517,CCCV DChg,57,10,46,-0.00006287,0.00074302,0.0499,2:37:30.000,2021-11-02 13:44:47
14555,CCCV DChg,57,10,46,-0.00004396,0.00075974,0.0499,2:56:26.300,2021-11-02 14:03:43
14593,CCCV Chg,59,10,48,0.00044171,0.00012148,0.1311,0:16:30.000,2021-11-02 14:21:43
14631,CCCV Chg,59,10,48,0.00044171,0.00026137,0.1565,0:35:30.000,2021-11-02 14:40:43
14669,CCCV Chg,59,10,48,0.00044177,0.00040126,0.1733,0:54:30.000,2021-11-02 14:59:43
14707,CCCV Chg,59,10,48,0.00044177,0.00054114,0.2002,1:13:30.000,2021-11-02 15:18:43
14745,CCCV Chg,59,10,48,0.00044177,0.00068103,0.3010,1:32:30.000,2021-11-02 15:37:43
14783,CCCV DChg,62,11,50,-0.00044165,0.00000368,0.7316,0:00:30.000,2021-11-02 15:55:42
14821,CCCV DChg,62,11,50,-0.00044159,0.00014353,0.1243,0:19:30.000,2021-11-02 16:14:42
14859,CCCV DChg,62,11,50,-0.00044165,0.00028338,0.0846,0:38:30.000,2021-11-02 16:33:42
14897,CCCV DChg,62,11,50,-0.00044159,0.00042322,0.0564,0:57:30.000,2021-11-02 16:52:42
14935,CCCV DChg,62,11,50,-0.00029904,0.00054460,0.0499,1:16:30.000,2021-11-02 17:11:42
14973,CCCV DChg,62,11,50,-0.00019301,0.00062120,0.0499,1:35:30.000,2021-11-02 17:30:42
15011,CCCV DChg,62,11,50,-0.00013244,0.00067162,0.0499,1:54:30.000,2021-11-02 17:49:42
15049,CCCV DChg,62,11,50,-0.00009554,0.00070736,0.0499,2:13:30.000,2021-11-02 18:08:42
15087,CCCV DChg,62,11,50,-0.00006913,0.00073323,0.0499,2:32:30.000,2021-11-02 18:27:42
15125,CCCV DChg,62,11,50,-0.00004867,0.00075166,0.0499,2:51:30.000,2021-11-02 18:46:42
15163,CCCV Chg,64,11,52,0.00044177,0.00008099,0.1264,0:11:00.000,2021-11-02 19:04:31
15201,CCCV Chg,64,11,52,0.00044171,0.00022087,0.1512,0:30:00.000,2021-11-02 19:23:31
15239,CCCV Chg,64,11,52,0.00044171,0.00036076,0.1689,0:49:00.000,2021-11-02 19:42:31
15277,CCCV Chg,64,11,52,0.00044171,0.00050064,0.1919,1:08:00.000,2021-11-02 20:01:31
15315,CCCV Chg,64,11,52,0.00044171,0.00064052,0.2514,1:27:00.000,2021-11-02 20:20:31
15353,CCCV Chg,64,11,52,0.00005326,0.00074716,1.3008,1:46:00.000,2021-11-02 20:39:31
15391,CCCV DChg,67,11,54,-0.00088368,0.00016202,0.0802,0:11:00.000,2021-11-02 20:57:18
15429,CCCV DChg,67,11,54,-0.00053038,0.00040786,0.0499,0:30:00.000,2021-11-02 21:16:18
15467,CCCV DChg,67,11,54,-0.00028955,0.00052856,0.0499,0:49:00.000,2021-11-02 21:35:18
15505,CCCV DChg,67,11,54,-0.00019481,0.00060395,0.0499,1:08:00.000,2021-11-02 21:54:18
15543,CCCV DChg,67,11,54,-0.00013981,0.00065609,0.0499,1:27:00.000,2021-11-02 22:13:18
15581,CCCV DChg,67,11,54,-0.00010317,0.00069428,0.0499,1:46:00.000,2021-11-02 22:32:18
15619,CCCV Chg,69,11,56,0.00088380,0.00006628,0.1612,0:04:30.000,2021-11-02 22:50:13
15657,CCCV Chg,69,11,56,0.00088380,0.00034615,0.2074,0:23:30.000,2021-11-02 23:09:13
15695,CCCV Chg,69,11,56,0.00088374,0.00062601,0.3552,0:42:30.000,2021-11-02 23:28:13
15733,CCCV DChg,72,12,58,-0.00088374,0.00007364,0.1432,0:05:00.000,2021-11-02 23:45:54
15771,CCCV DChg,72,12,58,-0.00068638,0.00034425,0.0499,0:24:00.000,2021-11-03 00:04:54
15809,CCCV DChg,72,12,58,-0.00032291,0.00049014,0.0499,0:43:00.000,2021-11-03 00:23:54
15847,CCCV DChg,72,12,58,-0.00021620,0.00057383,0.0499,1:02:00.000,2021-11-03 00:42:54
15885,CCCV DChg,72,12,58,-0.00015345,0.00063149,0.0499,1:21:00.000,2021-11-03 01:01:54
15923,CCCV DChg,72,12,58,-0.00011396,0.00067348,0.0499,1:40:00.000,2021-11-03 01:20:54
15961,Rest,73,12,59,0.00000000,0.00000000,0.0666,0:03:30.000,2021-11-03 01:38:55
15999,CCCV Chg,74,12,60,0.00088374,0.00025040,0.1943,0:17:00.000,2021-11-03 01:57:25
16037,CCCV Chg,74,12,60,0.00088374,0.00053026,0.2579,0:36:00.000,2021-11-03 02:16:25
16075,Rest,76,13,61,0.00000000,0.00000000,0.9455,0:04:30.000,2021-11-03 02:34:50
16113,CCCV DChg,77,13,62,-0.00088368,0.00026511,0.0499,0:18:00.000,2021-11-03 02:53:20
16151,CCCV DChg,77,13,62,-0.00037456,0.00045073,0.0499,0:37:00.000,2021-11-03 03:12:20
16189,CCCV DChg,77,13,62,-0.00023952,0.00054431,0.0499,0:56:00.000,2021-11-03 03:31:20
16227,CCCV DChg,77,13,62,-0.00016852,0.00060800,0.0499,1:15:00.000,2021-11-03 03:50:20
16265,CCCV DChg,77,13,62,-0.00012568,0.00065411,0.0499,1:34:00.000,2021-11-03 04:09:20
16303,CCCV DChg,77,13,62,-0.00009381,0.00068866,0.0499,1:53:00.000,2021-11-03 04:28:20
16341,CCCV Chg,79,13,64,0.00088380,0.00014730,0.1785,0:10:00.000,2021-11-03 04:45:52
16379,CCCV Chg,79,13,64,0.00088374,0.00042716,0.2269,0:29:00.000,2021-11-03 05:04:52
16417,CCCV Chg,79,13,64,0.00013864,0.00068498,1.3008,0:48:00.000,2021-11-03 05:23:52
16455,CCCV DChg,82,14,66,-0.00088368,0.00016201,0.0747,0:11:00.000,2021-11-03 05:41:30
16493,CCCV DChg,82,14,66,-0.00048722,0.00039659,0.0499,0:30:00.000,2021-11-03 06:00:30
16531,CCCV DChg,82,14,66,-0.00027083,0.00050828,0.0499,0:49:00.000,2021-11-03 06:19:30
16569,CCCV DChg,82,14,66,-0.00018911,0.00058014,0.0499,1:08:00.000,2021-11-03 06:38:30
16607,CCCV DChg,82,14,66,-0.00013994,0.00063153,0.0499,1:27:00.000,2021-11-03 06:57:30
16645,CCCV DChg,82,14,66,-0.00010608,0.00067028,0.0499,1:46:00.000,2021-11-03 07:16:30
16683,CCCV Chg,84,14,68,0.00088374,0.00002946,0.1534,0:02:00.000,2021-11-03 07:34:13
16721,CCCV Chg,84,14,68,0.00088374,0.00030931,0.2061,0:21:00.000,2021-11-03 07:53:13
16759,CCCV Chg,84,14,68,0.00088374,0.00058916,0.3149,0:40:00.000,2021-11-03 08:12:13
16797,CCCV DChg,87,15,70,-0.00088368,0.00005155,0.1640,0:03:30.000,2021-11-03 08:30:07
16835,CCCV DChg,87,15,70,-0.00068750,0.00032175,0.0499,0:22:30.000,2021-11-03 08:49:07
16873,CCCV DChg,87,15,70,-0.00031994,0.00046794,0.0499,0:41:30.000,2021-11-03 09:08:07
16911,CCCV DChg,87,15,70,-0.00022203,0.00055194,0.0499,1:00:30.000,2021-11-03 09:27:07
16949,CCCV DChg,87,15,70,-0.00016176,0.00061203,0.0499,1:19:30.000,2021-11-03 09:46:07
16987,CCCV DChg,87,15,70,-0.00012270,0.00065681,0.0499,1:38:30.000,2021-11-03 10:05:07
17025,CCCV DChg,87,15,70,-0.00009083,0.00069048,0.0499,1:57:30.000,2021-11-03 10:24:07
17063,CCCV Chg,89,15,72,0.00088380,0.00018412,0.1829,0:12:30.000,2021-11-03 10:42:07
17101,CCCV Chg,89,15,72,0.00088380,0.00046399,0.2343,0:31:30.000,2021-11-03 11:01:07
17139,Rest,91,15,73,0.00000000,0.00000000,1.2943,0:00:00.000,2021-11-03 11:19:21
17177,CCCV DChg,92,15,74,-0.00103515,0.00021192,0.0499,0:08:30.000,2021-11-03 11:37:51
17215,CCCV DChg,92,15,74,-0.00041846,0.00042470,0.0499,0:27:30.000,2021-11-03 11:56:51
17253,CCCV DChg,92,15,74,-0.00025861,0.00052677,0.0499,0:46:30.000,2021-11-03 12:15:51
17291,CCCV DChg,92,15,74,-0.00018229,0.00059557,0.0499,1:05:30.000,2021-11-03 12:34:51
17329,CCCV Chg,94,15,76,0.00169890,0.00008495,0.2219,0:03:00.000,2021-11-03 12:52:37
17367,CCCV Chg,94,15,76,0.00026401,0.00059922,1.3008,0:22:00.000,2021-11-03 13:11:37
17405,CCCV DChg,97,16,78,-0.00114831,0.00018301,0.0499,0:07:00.000,2021-11-03 13:29:29
17443,CCCV DChg,97,16,78,-0.00043160,0.00040671,0.0499,0:26:00.000,2021-11-03 13:48:29
17481,CCCV DChg,97,16,78,-0.00026196,0.00051081,0.0499,0:45:00.000,2021-11-03 14:07:29
17519,CCCV DChg,97,16,78,-0.00018917,0.00058120,0.0499,1:04:00.000,2021-11-03 14:26:29
17557,CCCV Chg,99,16,80,0.00169921,0.00001416,0.1993,0:00:30.000,2021-11-03 14:44:14
17595,CCCV Chg,99,16,80,0.00169890,0.00055218,0.5685,0:19:30.000,2021-11-03 15:03:14
17633,CCCV DChg,102,17,82,-0.00160311,0.00012715,0.0499,0:04:30.000,2021-11-03 15:21:04
17671,CCCV DChg,102,17,82,-0.00047836,0.00038678,0.0499,0:23:30.000,2021-11-03 15:40:04
17709,CCCV DChg,102,17,82,-0.00027380,0.00049817,0.0499,0:42:30.000,2021-11-03 15:59:04
17747,CCCV DChg,102,17,82,-0.00019500,0.00057119,0.0499,1:01:30.000,2021-11-03 16:18:04
17785,Rest,103,17,83,0.00000000,0.00000000,0.0799,0:09:00.000,2021-11-03 16:36:09
17823,CCCV Chg,104,17,84,0.00169890,0.00049554,0.3794,0:17:30.000,2021-11-03 16:54:39
17861,CCCV DChg,107,18,86,-0.00169828,0.00007076,0.0877,0:02:30.000,2021-11-03 17:12:21
17899,CCCV DChg,107,18,86,-0.00052002,0.00036609,0.0499,0:21:30.000,2021-11-03 17:31:21
17937,CCCV DChg,107,18,86,-0.00028317,0.00048398,0.0499,0:40:30.000,2021-11-03 17:50:21
17975,CCCV DChg,107,18,86,-0.00020157,0.00055947,0.0499,0:59:30.000,2021-11-03 18:09:22
18013,Rest,108,18,87,0.00000000,0.00000000,0.0787,0:06:30.000,2021-11-03 18:27:31
18051,CCCV Chg,109,18,88,0.00169890,0.00042474,0.3125,0:15:00.000,2021-11-03 18:46:01
18089,CCCV DChg,112,19,90,-0.00169797,0.00000000,0.6727,0:00:00.000,2021-11-03 19:03:40
18127,CCCV DChg,112,19,90,-0.00058339,0.00034097,0.0499,0:19:00.000,2021-11-03 19:22:40
18165,CCCV DChg,112,19,90,-0.00029792,0.00046905,0.0499,0:38:00.000,2021-11-03 19:41:40
18203,CCCV DChg,112,19,90,-0.00020994,0.00054784,0.0499,0:57:00.000,2021-11-03 20:00:40
18241,Rest,113,19,91,0.00000000,0.00000000,0.0771,0:04:00.000,2021-11-03 20:18:52
18279,CCCV Chg,114,19,92,0.00169890,0.00035395,0.2889,0:12:30.000,2021-11-03 20:37:22
18317,Rest,116,19,93,0.00000000,0.00000000,0.7818,0:08:00.000,2021-11-03 20:55:28
18355,CCCV DChg,117,19,94,-0.00061154,0.00032233,0.0499,0:16:30.000,2021-11-03 21:13:58
18393,Rest,118,19,95,0.00000000,0.00000000,0.0880,0:05:00.000,2021-11-03 21:32:27
18431,Rest,121,20,97,0.00000000,0.00000000,0.7459,0:04:30.000,2021-11-03 21:50:04
18469,CCCV DChg,122,20,98,-0.00069444,0.00027449,0.0499,0:13:00.000,2021-11-03 22:08:34
18507,Rest,123,20,99,0.00000000,0.00000000,0.0864,0:02:00.000,2021-11-03 22:27:02
18545,Rest,126,21,101,0.00000000,0.00000000,0.8159,0:02:00.000,2021-11-03 22:44:58
18583,CCCV DChg,127,21,102,-0.00075973,0.00024065,0.0499,0:10:30.000,2021-11-03 23:03:28
18621,Rest,128,21,103,0.00000000,0.00000000,0.0880,0:01:30.000,2021-11-03 23:21:52
18659,Rest,131,22,105,0.00000000,0.00000000,0.8444,0:01:30.000,2021-11-03 23:39:27
18697,CCCV DChg,132,22,106,-0.00075644,0.00022930,0.0499,0:10:00.000,2021-11-03 23:57:57
18735,Rest,133,22,107,0.00000000,0.00000000,0.0877,0:01:00.000,2021-11-04 00:16:10
18773,Rest,136,23,109,0.00000000,0.00000000,0.8457,0:01:30.000,2021-11-04 00:34:03
18811,CCCV DChg,137,23,110,-0.00074820,0.00022704,0.0499,0:10:00.000,2021-11-04 00:52:33
18849,Rest,138,23,111,0.00000000,0.00000000,0.0880,0:01:00.000,2021-11-04 01:10:59
18887,Rest,141,23,113,0.00000000,0.00000000,0.8451,0:01:30.000,2021-11-04 01:28:51
18925,CCCV DChg,142,23,114,-0.00044159,0.00007360,0.1565,0:10:00.000,2021-11-04 01:47:21
18963,CCCV DChg,142,23,114,-0.00044159,0.00021344,0.0778,0:29:00.000,2021-11-04 02:06:21
19001,CCCV DChg,142,23,114,-0.00044159,0.00035327,0.0502,0:48:00.000,2021-11-04 02:25:21
19039,CCCV DChg,142,23,114,-0.00024665,0.00045351,0.0499,1:07:00.000,2021-11-04 02:44:21
19077,CCCV DChg,142,23,114,-0.00019909,0.00052343,0.0499,1:26:00.000,2021-11-04 03:03:21
19115,CCCV DChg,142,23,114,-0.00016059,0.00058032,0.0499,1:45:00.000,2021-11-04 03:22:21
19153,CCCV DChg,142,23,114,-0.00012456,0.00062531,0.0499,2:04:00.000,2021-11-04 03:41:21
19191,CCCV DChg,142,23,114,-0.00009449,0.00065983,0.0499,2:23:00.000,2021-11-04 04:00:21
19229,CCCV DChg,142,23,114,-0.00007068,0.00068583,0.0499,2:42:00.000,2021-11-04 04:19:21
19267,CCCV DChg,142,23,114,-0.00005245,0.00070521,0.0499,3:01:00.000,2021-11-04 04:38:21
19305,Rest,143,23,115,0.00000000,0.00000000,0.0613,0:07:30.000,2021-11-04 04:56:47
19343,CCCV Chg,144,23,116,0.00044171,0.00011779,0.1404,0:16:00.000,2021-11-04 05:15:17
19381,CCCV Chg,144,23,116,0.00044171,0.00025766,0.1652,0:35:00.000,2021-11-04 05:34:17
19419,CCCV Chg,144,23,116,0.00044171,0.00039754,0.1838,0:54:00.000,2021-11-04 05:53:17
19457,CCCV Chg,144,23,116,0.00044171,0.00053741,0.2191,1:13:00.000,2021-11-04 06:12:17
19495,CCCV Chg,144,23,116,0.00044171,0.00067729,0.4960,1:32:00.000,2021-11-04 06:31:17
19533,Rest,146,24,117,0.00000000,0.00000000,1.0298,0:05:00.000,2021-11-04 06:49:44
19571,CCCV DChg,147,24,118,-0.00044159,0.00009936,0.1404,0:13:30.000,2021-11-04 07:08:14
19609,CCCV DChg,147,24,118,-0.00044159,0.00023919,0.0771,0:32:30.000,2021-11-04 07:27:14
19647,CCCV DChg,147,24,118,-0.00044153,0.00037903,0.0508,0:51:30.000,2021-11-04 07:46:14
19685,CCCV DChg,147,24,118,-0.00026742,0.00048620,0.0499,1:10:30.000,2021-11-04 08:05:14
19723,CCCV DChg,147,24,118,-0.00019289,0.00055817,0.0499,1:29:30.000,2021-11-04 08:24:14
19761,CCCV DChg,147,24,118,-0.00014403,0.00061084,0.0499,1:48:30.000,2021-11-04 08:43:14
19799,CCCV DChg,147,24,118,-0.00011011,0.00065081,0.0499,2:07:30.000,2021-11-04 09:02:14
19837,CCCV DChg,147,24,118,-0.00008345,0.00068130,0.0499,2:26:30.000,2021-11-04 09:21:14
19875,CCCV DChg,147,24,118,-0.00006144,0.00070419,0.0499,2:45:30.000,2021-11-04 09:40:14
19913,CCCV DChg,147,24,118,-0.00004538,0.00072100,0.0499,3:04:30.000,2021-11-04 09:59:14
19951,CCCV Chg,149,24,120,0.00044171,0.00004049,0.1230,0:05:30.000,2021-11-04 10:16:47
19989,CCCV Chg,149,24,120,0.00044171,0.00018036,0.1494,0:24:30.000,2021-11-04 10:35:47
20027,CCCV Chg,149,24,120,0.00044171,0.00032024,0.1711,0:43:30.000,2021-11-04 10:54:47
20065,CCCV Chg,149,24,120,0.00044171,0.00046011,0.1956,1:02:30.000,2021-11-04 11:13:47
20103,CCCV Chg,149,24,120,0.00044171,0.00059999,0.2523,1:21:30.000,2021-11-04 11:32:47
20141,CCCV Chg,149,24,120,0.00007068,0.00071434,1.3008,1:40:30.000,2021-11-04 11:51:47
20179,CCCV DChg,152,25,122,-0.00044159,0.00002576,0.3261,0:03:30.000,2021-11-04 12:09:45
20217,CCCV DChg,152,25,122,-0.00044159,0.00016560,0.0930,0:22:30.000,2021-11-04 12:28:45
20255,CCCV DChg,152,25,122,-0.00044159,0.00030543,0.0660,0:41:30.000,2021-11-04 12:47:45
20293,CCCV DChg,152,25,122,-0.00033903,0.00043795,0.0499,1:00:30.000,2021-11-04 13:06:45
20331,CCCV DChg,152,25,122,-0.00023102,0.00052574,0.0499,1:19:30.000,2021-11-04 13:25:45
20369,CCCV DChg,152,25,122,-0.00016790,0.00058817,0.0499,1:38:30.000,2021-11-04 13:44:45
20407,CCCV DChg,152,25,122,-0.00012630,0.00063428,0.0499,1:57:30.000,2021-11-04 14:03:45
20445,CCCV DChg,152,25,122,-0.00009616,0.00066929,0.0499,2:16:30.000,2021-11-04 14:22:45
20483,CCCV DChg,152,25,122,-0.00007291,0.00069594,0.0499,2:35:30.000,2021-11-04 14:41:45
20521,CCCV DChg,152,25,122,-0.00005338,0.00071578,0.0499,2:54:30.000,2021-11-04 15:00:45
20559,Rest,153,25,123,0.00000000,0.00000000,0.0613,0:07:30.000,2021-11-04 15:18:58
20597,CCCV Chg,154,25,124,0.00044171,0.00011779,0.1357,0:16:00.000,2021-11-04 15:37:28
20635,CCCV Chg,154,25,124,0.00044171,0.00025767,0.1627,0:35:00.000,2021-11-04 15:56:28
20673,CCCV Chg,154,25,124,0.00044171,0.00039754,0.1816,0:54:00.000,2021-11-04 16:15:28
20711,CCCV Chg,154,25,124,0.00044171,0.00053742,0.2170,1:13:00.000,2021-11-04 16:34:28
20749,CCCV Chg,154,25,124,0.00044171,0.00067729,0.5143,1:32:00.000,2021-11-04 16:53:28
20787,Rest,156,26,125,0.00000000,0.00000000,1.0261,0:05:00.000,2021-11-04 17:11:38
20825,CCCV DChg,157,26,126,-0.00044159,0.00009936,0.1407,0:13:30.000,2021-11-04 17:30:08
20863,CCCV DChg,157,26,126,-0.00044159,0.00023920,0.0784,0:32:30.000,2021-11-04 17:49:08
20901,CCCV DChg,157,26,126,-0.00044159,0.00037903,0.0511,0:51:30.000,2021-11-04 18:08:08
20939,CCCV DChg,157,26,126,-0.00026500,0.00048635,0.0499,1:10:30.000,2021-11-04 18:27:08
20977,CCCV DChg,157,26,126,-0.00019010,0.00055740,0.0499,1:29:30.000,2021-11-04 18:46:08
21015,CCCV DChg,157,26,126,-0.00014415,0.00060995,0.0499,1:48:30.000,2021-11-04 19:05:08
21053,CCCV DChg,157,26,126,-0.00010974,0.00064986,0.0499,2:07:30.000,2021-11-04 19:24:08
21091,CCCV DChg,157,26,126,-0.00008271,0.00068010,0.0499,2:26:30.000,2021-11-04 19:43:08
21129,CCCV DChg,157,26,126,-0.00006156,0.00070280,0.0499,2:45:30.000,2021-11-04 20:02:08
21167,CCCV DChg,157,26,126,-0.00004532,0.00071958,0.0499,3:04:30.000,2021-11-04 20:21:08
21205,CCCV Chg,159,26,128,0.00044171,0.00004417,0.1233,0:06:00.000,2021-11-04 20:39:01
21243,CCCV Chg,159,26,128,0.00044171,0.00018405,0.1515,0:25:00.000,2021-11-04 20:58:01
21281,CCCV Chg,159,26,128,0.00044171,0.00032392,0.1729,0:44:00.000,2021-11-04 21:17:01
21319,CCCV Chg,159,26,128,0.00044171,0.00046380,0.1959,1:03:00.000,2021-11-04 21:36:01
21357,CCCV Chg,159,26,128,0.00044171,0.00060367,0.2548,1:22:00.000,2021-11-04 21:55:01
21395,CCCV Chg,159,26,128,0.00006392,0.00071352,1.3008,1:41:00.000,2021-11-04 22:14:01
21433,CCCV DChg,162,27,130,-0.00044159,0.00002944,0.2973,0:04:00.000,2021-11-04 22:31:44
21471,CCCV DChg,162,27,130,-0.00044159,0.00016928,0.0908,0:23:00.000,2021-11-04 22:50:44
21509,CCCV DChg,162,27,130,-0.00044159,0.00030911,0.0644,0:42:00.000,2021-11-04 23:09:44
21547,CCCV DChg,162,27,130,-0.00032124,0.00043830,0.0499,1:01:00.000,2021-11-04 23:28:44
21585,CCCV DChg,162,27,130,-0.00022234,0.00052215,0.0499,1:20:00.000,2021-11-04 23:47:44
21623,CCCV DChg,162,27,130,-0.00016784,0.00058330,0.0499,1:39:00.000,2021-11-05 00:06:44
21661,CCCV DChg,162,27,130,-0.00012822,0.00062997,0.0499,1:58:00.000,2021-11-05 00:25:44
21699,CCCV DChg,162,27,130,-0.00009641,0.00066534,0.0499,2:17:00.000,2021-11-05 00:44:44
21737,CCCV DChg,162,27,130,-0.00007142,0.00069172,0.0496,2:36:00.000,2021-11-05 01:03:44
21775,CCCV DChg,162,27,130,-0.00005233,0.00071116,0.0499,2:55:00.000,2021-11-05 01:22:44
21813,Rest,163,27,131,0.00000000,0.00000000,0.0616,0:08:00.000,2021-11-05 01:41:06
21851,CCCV Chg,164,27,132,0.00044171,0.00012147,0.1388,0:16:30.000,2021-11-05 01:59:36
21889,CCCV Chg,164,27,132,0.00044171,0.00026135,0.1646,0:35:30.000,2021-11-05 02:18:36
21927,CCCV Chg,164,27,132,0.00044171,0.00040122,0.1844,0:54:30.000,2021-11-05 02:37:36
21965,CCCV Chg,164,27,132,0.00044171,0.00054109,0.2225,1:13:30.000,2021-11-05 02:56:36
22003,CCCV Chg,164,27,132,0.00044171,0.00068097,0.6454,1:32:30.000,2021-11-05 03:15:36
22028,CCCV Chg,164,27,132,0.00004396,0.00071526,1.3005,1:44:41.100,2021-11-05 03:27:47