File: FoPra/Li-Ion-Batterie/Data Cleaning/calendered_rawdata.csv
Record number,status,Jump,Cycle,Steps,Current(A),Capacity(Ah),Voltage(V),Relative Time(h:min:s.ms),Real Time(h:min:s.ms)
1,Rest,1,1,1,0.00000000,0.00000000,2.8112,0:00:00.000,2021-07-22 15:08:20
38,CCCV DChg,2,1,2,-0.00014973,0.00004119,0.6733,0:16:30.000,2021-07-22 15:26:20
75,CCCV DChg,2,1,2,-0.00014973,0.00008736,0.4219,0:35:00.000,2021-07-22 15:44:50
112,CCCV DChg,2,1,2,-0.00014973,0.00013353,0.2728,0:53:30.000,2021-07-22 16:03:20
149,CCCV DChg,2,1,2,-0.00014973,0.00017970,0.1838,1:12:00.000,2021-07-22 16:21:50
186,CCCV DChg,2,1,2,-0.00014973,0.00022587,0.1711,1:30:30.000,2021-07-22 16:40:20
223,CCCV DChg,2,1,2,-0.00014973,0.00027204,0.1584,1:49:00.000,2021-07-22 16:58:50
260,CCCV DChg,2,1,2,-0.00014973,0.00031821,0.1401,2:07:30.000,2021-07-22 17:17:20
297,CCCV DChg,2,1,2,-0.00014967,0.00036438,0.1215,2:26:00.000,2021-07-22 17:35:50
334,CCCV DChg,2,1,2,-0.00014973,0.00041054,0.1069,2:44:30.000,2021-07-22 17:54:20
371,CCCV DChg,2,1,2,-0.00014980,0.00045671,0.0998,3:03:00.000,2021-07-22 18:12:50
408,CCCV DChg,2,1,2,-0.00014973,0.00050288,0.0964,3:21:30.000,2021-07-22 18:31:20
445,CCCV DChg,2,1,2,-0.00014973,0.00054905,0.0951,3:40:00.000,2021-07-22 18:49:50
482,CCCV DChg,2,1,2,-0.00014973,0.00059522,0.0936,3:58:30.000,2021-07-22 19:08:20
519,CCCV DChg,2,1,2,-0.00014973,0.00064139,0.0923,4:17:00.000,2021-07-22 19:26:50
556,CCCV DChg,2,1,2,-0.00014967,0.00068755,0.0905,4:35:30.000,2021-07-22 19:45:20
593,CCCV DChg,2,1,2,-0.00014967,0.00073370,0.0889,4:54:00.000,2021-07-22 20:03:50
630,CCCV DChg,2,1,2,-0.00014967,0.00077985,0.0864,5:12:30.000,2021-07-22 20:22:20
667,CCCV DChg,2,1,2,-0.00014967,0.00082600,0.0824,5:31:00.000,2021-07-22 20:40:50
704,CCCV DChg,2,1,2,-0.00014967,0.00087215,0.0759,5:49:30.000,2021-07-22 20:59:20
741,CCCV DChg,2,1,2,-0.00014967,0.00091829,0.0703,6:08:00.000,2021-07-22 21:17:50
778,CCCV DChg,2,1,2,-0.00014967,0.00096444,0.0666,6:26:30.000,2021-07-22 21:36:20
815,CCCV DChg,2,1,2,-0.00014967,0.00101060,0.0651,6:45:00.000,2021-07-22 21:54:50
852,CCCV DChg,2,1,2,-0.00014973,0.00105676,0.0651,7:03:30.000,2021-07-22 22:13:20
889,CCCV DChg,2,1,2,-0.00014973,0.00110293,0.0638,7:22:00.000,2021-07-22 22:31:50
926,CCCV DChg,2,1,2,-0.00014973,0.00114909,0.0635,7:40:30.000,2021-07-22 22:50:20
963,CCCV DChg,2,1,2,-0.00014973,0.00119525,0.0623,7:59:00.000,2021-07-22 23:08:50
1000,CCCV DChg,2,1,2,-0.00014973,0.00124142,0.0610,8:17:30.000,2021-07-22 23:27:20
1037,CCCV DChg,2,1,2,-0.00014967,0.00128758,0.0589,8:36:00.000,2021-07-22 23:45:50
1074,CCCV DChg,2,1,2,-0.00014967,0.00133374,0.0564,8:54:30.000,2021-07-23 00:04:20
1111,CCCV DChg,2,1,2,-0.00014973,0.00137990,0.0530,9:13:00.000,2021-07-23 00:22:50
1148,CCCV DChg,2,1,2,-0.00013392,0.00142499,0.0502,9:31:30.000,2021-07-23 00:41:20
1185,CCCV DChg,2,1,2,-0.00010522,0.00146164,0.0499,9:50:00.000,2021-07-23 00:59:50
1222,CCCV DChg,2,1,2,-0.00008134,0.00149029,0.0502,10:08:30.000,2021-07-23 01:18:20
1259,CCCV DChg,2,1,2,-0.00006187,0.00151224,0.0502,10:27:00.000,2021-07-23 01:36:50
1296,CCCV DChg,2,1,2,-0.00004582,0.00152875,0.0499,10:45:30.000,2021-07-23 01:55:20
1333,CCCV DChg,2,1,2,-0.00003342,0.00154090,0.0499,11:04:00.000,2021-07-23 02:13:50
1370,CCCV DChg,2,1,2,-0.00002405,0.00154972,0.0499,11:22:30.000,2021-07-23 02:32:20
1407,CCCV DChg,2,1,2,-0.00001717,0.00155604,0.0499,11:41:00.000,2021-07-23 02:50:50
1444,CCCV Chg,4,1,4,0.00014980,0.00002122,0.0892,0:08:30.000,2021-07-23 03:08:11
1481,CCCV Chg,4,1,4,0.00014980,0.00006741,0.0995,0:27:00.000,2021-07-23 03:26:41
1518,CCCV Chg,4,1,4,0.00014980,0.00011360,0.1004,0:45:30.000,2021-07-23 03:45:11
1555,CCCV Chg,4,1,4,0.00014980,0.00015978,0.1007,1:04:00.000,2021-07-23 04:03:41
1592,CCCV Chg,4,1,4,0.00014980,0.00020597,0.1013,1:22:30.000,2021-07-23 04:22:11
1629,CCCV Chg,4,1,4,0.00014980,0.00025216,0.1016,1:41:00.000,2021-07-23 04:40:41
1666,CCCV Chg,4,1,4,0.00014980,0.00029835,0.1023,1:59:30.000,2021-07-23 04:59:11
1703,CCCV Chg,4,1,4,0.00014980,0.00034453,0.1035,2:18:00.000,2021-07-23 05:17:41
1740,CCCV Chg,4,1,4,0.00014973,0.00039072,0.1050,2:36:30.000,2021-07-23 05:36:11
1777,CCCV Chg,4,1,4,0.00014973,0.00043691,0.1078,2:55:00.000,2021-07-23 05:54:41
1814,CCCV Chg,4,1,4,0.00014980,0.00048309,0.1122,3:13:30.000,2021-07-23 06:13:11
1851,CCCV Chg,4,1,4,0.00014980,0.00052928,0.1190,3:32:00.000,2021-07-23 06:31:41
1888,CCCV Chg,4,1,4,0.00014980,0.00057546,0.1274,3:50:30.000,2021-07-23 06:50:11
1925,CCCV Chg,4,1,4,0.00014980,0.00062165,0.1329,4:09:00.000,2021-07-23 07:08:41
1962,CCCV Chg,4,1,4,0.00014980,0.00066783,0.1354,4:27:30.000,2021-07-23 07:27:11
1999,CCCV Chg,4,1,4,0.00014980,0.00071402,0.1370,4:46:00.000,2021-07-23 07:45:41
2036,CCCV Chg,4,1,4,0.00014980,0.00076020,0.1379,5:04:30.000,2021-07-23 08:04:11
2073,CCCV Chg,4,1,4,0.00014980,0.00080639,0.1391,5:23:00.000,2021-07-23 08:22:41
2110,CCCV Chg,4,1,4,0.00014980,0.00085258,0.1401,5:41:30.000,2021-07-23 08:41:11
2147,CCCV Chg,4,1,4,0.00014980,0.00089876,0.1413,6:00:00.000,2021-07-23 08:59:41
2184,CCCV Chg,4,1,4,0.00014980,0.00094495,0.1438,6:18:30.000,2021-07-23 09:18:11
2221,CCCV Chg,4,1,4,0.00014980,0.00099114,0.1491,6:37:00.000,2021-07-23 09:36:41
2258,CCCV Chg,4,1,4,0.00014980,0.00103733,0.1562,6:55:30.000,2021-07-23 09:55:11
2295,CCCV Chg,4,1,4,0.00014980,0.00108352,0.1667,7:14:00.000,2021-07-23 10:13:41
2332,CCCV Chg,4,1,4,0.00014986,0.00112971,0.1776,7:32:30.000,2021-07-23 10:32:11
2369,CCCV Chg,4,1,4,0.00014980,0.00117590,0.1950,7:51:00.000,2021-07-23 10:50:41
2406,CCCV Chg,4,1,4,0.00014980,0.00122209,0.2160,8:09:30.000,2021-07-23 11:09:11
2443,CCCV Chg,4,1,4,0.00014980,0.00126829,0.2253,8:28:00.000,2021-07-23 11:27:41
2480,CCCV Chg,4,1,4,0.00014973,0.00131447,0.2399,8:46:30.000,2021-07-23 11:46:11
2517,CCCV Chg,4,1,4,0.00014980,0.00136067,0.3924,9:05:00.000,2021-07-23 12:04:41
2554,CCCV Chg,4,1,4,0.00014986,0.00140686,1.0212,9:23:30.000,2021-07-23 12:23:11
2591,CCCV DChg,7,2,6,-0.00014980,0.00001748,0.6107,0:07:00.000,2021-07-23 12:40:31
2628,CCCV DChg,7,2,6,-0.00014973,0.00006366,0.3159,0:25:30.000,2021-07-23 12:59:01
2665,CCCV DChg,7,2,6,-0.00014973,0.00010983,0.2043,0:44:00.000,2021-07-23 13:17:31
2702,CCCV DChg,7,2,6,-0.00014967,0.00015598,0.1956,1:02:30.000,2021-07-23 13:36:01
2739,CCCV DChg,7,2,6,-0.00014973,0.00020214,0.1810,1:21:00.000,2021-07-23 13:54:31
2776,CCCV DChg,7,2,6,-0.00014967,0.00024829,0.1574,1:39:30.000,2021-07-23 14:13:01
2813,CCCV DChg,7,2,6,-0.00014967,0.00029445,0.1391,1:58:00.000,2021-07-23 14:31:31
2850,CCCV DChg,7,2,6,-0.00014967,0.00034060,0.1236,2:16:30.000,2021-07-23 14:50:01
2887,CCCV DChg,7,2,6,-0.00014967,0.00038675,0.1162,2:35:00.000,2021-07-23 15:08:31
2924,CCCV DChg,7,2,6,-0.00014967,0.00043290,0.1143,2:53:30.000,2021-07-23 15:27:01
2961,CCCV DChg,7,2,6,-0.00014967,0.00047905,0.1134,3:12:00.000,2021-07-23 15:45:31
2998,CCCV DChg,7,2,6,-0.00014967,0.00052520,0.1125,3:30:30.000,2021-07-23 16:04:01
3035,CCCV DChg,7,2,6,-0.00014967,0.00057135,0.1112,3:49:00.000,2021-07-23 16:22:31
3072,CCCV DChg,7,2,6,-0.00014967,0.00061750,0.1103,4:07:30.000,2021-07-23 16:41:01
3109,CCCV DChg,7,2,6,-0.00014967,0.00066365,0.1085,4:26:00.000,2021-07-23 16:59:31
3146,CCCV DChg,7,2,6,-0.00014967,0.00070979,0.1050,4:44:30.000,2021-07-23 17:18:01
3183,CCCV DChg,7,2,6,-0.00014967,0.00075594,0.1001,5:03:00.000,2021-07-23 17:36:31
3220,CCCV DChg,7,2,6,-0.00014967,0.00080209,0.0874,5:21:30.000,2021-07-23 17:55:01
3257,CCCV DChg,7,2,6,-0.00014967,0.00084824,0.0778,5:40:00.000,2021-07-23 18:13:31
3294,CCCV DChg,7,2,6,-0.00014967,0.00089439,0.0775,5:58:30.000,2021-07-23 18:32:01
3331,CCCV DChg,7,2,6,-0.00014967,0.00094054,0.0775,6:17:00.000,2021-07-23 18:50:31
3368,CCCV DChg,7,2,6,-0.00014967,0.00098669,0.0768,6:35:30.000,2021-07-23 19:09:01
3405,CCCV DChg,7,2,6,-0.00014973,0.00103284,0.0762,6:54:00.000,2021-07-23 19:27:31
3442,CCCV DChg,7,2,6,-0.00014967,0.00107900,0.0750,7:12:30.000,2021-07-23 19:46:01
3479,CCCV DChg,7,2,6,-0.00014973,0.00112515,0.0740,7:31:00.000,2021-07-23 20:04:31
3516,CCCV DChg,7,2,6,-0.00014967,0.00117131,0.0725,7:49:30.000,2021-07-23 20:23:01
3553,CCCV DChg,7,2,6,-0.00014973,0.00121746,0.0706,8:08:00.000,2021-07-23 20:41:31
3590,CCCV DChg,7,2,6,-0.00014973,0.00126362,0.0672,8:26:30.000,2021-07-23 21:00:01
3627,CCCV DChg,7,2,6,-0.00014967,0.00130977,0.0616,8:45:00.000,2021-07-23 21:18:31
3664,CCCV DChg,7,2,6,-0.00014967,0.00135592,0.0511,9:03:30.000,2021-07-23 21:37:01
3701,CCCV DChg,7,2,6,-0.00008581,0.00139092,0.0499,9:22:00.000,2021-07-23 21:55:31
3738,CCCV DChg,7,2,6,-0.00005326,0.00141199,0.0499,9:40:30.000,2021-07-23 22:14:01
3775,CCCV DChg,7,2,6,-0.00003224,0.00142492,0.0502,9:59:00.000,2021-07-23 22:32:31
3812,CCCV DChg,7,2,6,-0.00001940,0.00143272,0.0502,10:17:30.000,2021-07-23 22:51:01
3849,CCCV Chg,9,2,8,0.00014980,0.00001623,0.0812,0:06:30.000,2021-07-23 23:08:22
3886,CCCV Chg,9,2,8,0.00014973,0.00006241,0.0954,0:25:00.000,2021-07-23 23:26:52
3923,CCCV Chg,9,2,8,0.00014980,0.00010859,0.0979,0:43:30.000,2021-07-23 23:45:22
3960,CCCV Chg,9,2,8,0.00014973,0.00015477,0.0988,1:02:00.000,2021-07-24 00:03:52
3997,CCCV Chg,9,2,8,0.00014973,0.00020094,0.0998,1:20:30.000,2021-07-24 00:22:22
4034,CCCV Chg,9,2,8,0.00014973,0.00024711,0.1007,1:39:00.000,2021-07-24 00:40:52
4071,CCCV Chg,9,2,8,0.00014980,0.00029328,0.1013,1:57:30.000,2021-07-24 00:59:22
4108,CCCV Chg,9,2,8,0.00014980,0.00033945,0.1026,2:16:00.000,2021-07-24 01:17:52
4145,CCCV Chg,9,2,8,0.00014980,0.00038563,0.1044,2:34:30.000,2021-07-24 01:36:22
4182,CCCV Chg,9,2,8,0.00014980,0.00043182,0.1078,2:53:00.000,2021-07-24 01:54:52
4219,CCCV Chg,9,2,8,0.00014973,0.00047800,0.1116,3:11:30.000,2021-07-24 02:13:22
4256,CCCV Chg,9,2,8,0.00014980,0.00052417,0.1181,3:30:00.000,2021-07-24 02:31:52
4293,CCCV Chg,9,2,8,0.00014986,0.00057037,0.1258,3:48:30.000,2021-07-24 02:50:22
4330,CCCV Chg,9,2,8,0.00014980,0.00061655,0.1314,4:07:00.000,2021-07-24 03:08:52
4367,CCCV Chg,9,2,8,0.00014986,0.00066275,0.1348,4:25:30.000,2021-07-24 03:27:22
4404,CCCV Chg,9,2,8,0.00014980,0.00070894,0.1360,4:44:00.000,2021-07-24 03:45:52
4441,CCCV Chg,9,2,8,0.00014980,0.00075513,0.1370,5:02:30.000,2021-07-24 04:04:22
4478,CCCV Chg,9,2,8,0.00014980,0.00080132,0.1382,5:21:00.000,2021-07-24 04:22:52
4515,CCCV Chg,9,2,8,0.00014980,0.00084751,0.1398,5:39:30.000,2021-07-24 04:41:22
4552,CCCV Chg,9,2,8,0.00014980,0.00089370,0.1410,5:58:00.000,2021-07-24 04:59:52
4589,CCCV Chg,9,2,8,0.00014980,0.00093989,0.1435,6:16:30.000,2021-07-24 05:18:22
4626,CCCV Chg,9,2,8,0.00014980,0.00098608,0.1478,6:35:00.000,2021-07-24 05:36:52
4663,CCCV Chg,9,2,8,0.00014980,0.00103227,0.1540,6:53:30.000,2021-07-24 05:55:22
4700,CCCV Chg,9,2,8,0.00014980,0.00107845,0.1649,7:12:00.000,2021-07-24 06:13:52
4737,CCCV Chg,9,2,8,0.00014980,0.00112464,0.1754,7:30:30.000,2021-07-24 06:32:22
4774,CCCV Chg,9,2,8,0.00014980,0.00117083,0.1909,7:49:00.000,2021-07-24 06:50:52
4811,CCCV Chg,9,2,8,0.00014980,0.00121702,0.2105,8:07:30.000,2021-07-24 07:09:22
4848,CCCV Chg,9,2,8,0.00014980,0.00126321,0.2241,8:26:00.000,2021-07-24 07:27:52
4885,CCCV Chg,9,2,8,0.00014980,0.00130939,0.2340,8:44:30.000,2021-07-24 07:46:22
4922,CCCV Chg,9,2,8,0.00014980,0.00135558,0.3531,9:03:00.000,2021-07-24 08:04:52
4959,CCCV Chg,9,2,8,0.00014980,0.00140177,0.7552,9:21:30.000,2021-07-24 08:23:22
4996,CCCV DChg,12,3,10,-0.00014980,0.00000998,0.7254,0:04:00.000,2021-07-24 08:40:28
5033,CCCV DChg,12,3,10,-0.00014973,0.00005615,0.3441,0:22:30.000,2021-07-24 08:58:58
5070,CCCV DChg,12,3,10,-0.00014973,0.00010232,0.2101,0:41:00.000,2021-07-24 09:17:28
5107,CCCV DChg,12,3,10,-0.00014973,0.00014848,0.1974,0:59:30.000,2021-07-24 09:35:58
5144,CCCV DChg,12,3,10,-0.00014973,0.00019465,0.1841,1:18:00.000,2021-07-24 09:54:28
5181,CCCV DChg,12,3,10,-0.00014973,0.00024082,0.1612,1:36:30.000,2021-07-24 10:12:58
5218,CCCV DChg,12,3,10,-0.00014973,0.00028699,0.1419,1:55:00.000,2021-07-24 10:31:28
5255,CCCV DChg,12,3,10,-0.00014973,0.00033316,0.1255,2:13:30.000,2021-07-24 10:49:58
5292,CCCV DChg,12,3,10,-0.00014967,0.00037932,0.1174,2:32:00.000,2021-07-24 11:08:28
5329,CCCV DChg,12,3,10,-0.00014961,0.00042549,0.1143,2:50:30.000,2021-07-24 11:26:58
5366,CCCV DChg,12,3,10,-0.00014967,0.00047164,0.1140,3:09:00.000,2021-07-24 11:45:28
5403,CCCV DChg,12,3,10,-0.00014967,0.00051779,0.1131,3:27:30.000,2021-07-24 12:03:58
5440,CCCV DChg,12,3,10,-0.00014967,0.00056395,0.1125,3:46:00.000,2021-07-24 12:22:28
5477,CCCV DChg,12,3,10,-0.00014973,0.00061012,0.1109,4:04:30.000,2021-07-24 12:40:58
5514,CCCV DChg,12,3,10,-0.00014967,0.00065627,0.1091,4:23:00.000,2021-07-24 12:59:28
5551,CCCV DChg,12,3,10,-0.00014967,0.00070241,0.1057,4:41:30.000,2021-07-24 13:17:58
5588,CCCV DChg,12,3,10,-0.00014967,0.00074856,0.1013,5:00:00.000,2021-07-24 13:36:28
5625,CCCV DChg,12,3,10,-0.00014967,0.00079471,0.0899,5:18:30.000,2021-07-24 13:54:58
5662,CCCV DChg,12,3,10,-0.00014967,0.00084086,0.0781,5:37:00.000,2021-07-24 14:13:28
5699,CCCV DChg,12,3,10,-0.00014967,0.00088701,0.0781,5:55:30.000,2021-07-24 14:31:58
5736,CCCV DChg,12,3,10,-0.00014967,0.00093316,0.0778,6:14:00.000,2021-07-24 14:50:28
5773,CCCV DChg,12,3,10,-0.00014967,0.00097931,0.0775,6:32:30.000,2021-07-24 15:08:58
5810,CCCV DChg,12,3,10,-0.00014967,0.00102546,0.0768,6:51:00.000,2021-07-24 15:27:28
5847,CCCV DChg,12,3,10,-0.00014967,0.00107161,0.0759,7:09:30.000,2021-07-24 15:45:58
5884,CCCV DChg,12,3,10,-0.00014973,0.00111777,0.0747,7:28:00.000,2021-07-24 16:04:28
5921,CCCV DChg,12,3,10,-0.00014967,0.00116392,0.0731,7:46:30.000,2021-07-24 16:22:58
5958,CCCV DChg,12,3,10,-0.00014967,0.00121008,0.0709,8:05:00.000,2021-07-24 16:41:28
5995,CCCV DChg,12,3,10,-0.00014973,0.00125623,0.0675,8:23:30.000,2021-07-24 16:59:58
6032,CCCV DChg,12,3,10,-0.00014967,0.00130238,0.0623,8:42:00.000,2021-07-24 17:18:28
6069,CCCV DChg,12,3,10,-0.00014967,0.00134853,0.0530,9:00:30.000,2021-07-24 17:36:58
6106,CCCV DChg,12,3,10,-0.00008909,0.00138557,0.0499,9:19:00.000,2021-07-24 17:55:28
6143,CCCV DChg,12,3,10,-0.00005574,0.00140759,0.0499,9:37:30.000,2021-07-24 18:13:58
6180,CCCV DChg,12,3,10,-0.00003311,0.00142104,0.0499,9:56:00.000,2021-07-24 18:32:28
6217,CCCV DChg,12,3,10,-0.00001903,0.00142890,0.0499,10:14:30.000,2021-07-24 18:50:58
6254,CCCV Chg,14,3,12,0.00014980,0.00001997,0.0821,0:08:00.000,2021-07-24 19:08:17
6291,CCCV Chg,14,3,12,0.00014980,0.00006616,0.0948,0:26:30.000,2021-07-24 19:26:47
6328,CCCV Chg,14,3,12,0.00014980,0.00011234,0.0973,0:45:00.000,2021-07-24 19:45:17
6365,CCCV Chg,14,3,12,0.00014980,0.00015853,0.0988,1:03:30.000,2021-07-24 20:03:47
6402,CCCV Chg,14,3,12,0.00014973,0.00020471,0.0998,1:22:00.000,2021-07-24 20:22:17
6439,CCCV Chg,14,3,12,0.00014973,0.00025088,0.1007,1:40:30.000,2021-07-24 20:40:47
6476,CCCV Chg,14,3,12,0.00014973,0.00029705,0.1016,1:59:00.000,2021-07-24 20:59:17
6513,CCCV Chg,14,3,12,0.00014973,0.00034323,0.1035,2:17:30.000,2021-07-24 21:17:47
6550,CCCV Chg,14,3,12,0.00014980,0.00038941,0.1050,2:36:00.000,2021-07-24 21:36:17
6587,CCCV Chg,14,3,12,0.00014980,0.00043560,0.1088,2:54:30.000,2021-07-24 21:54:47
6624,CCCV Chg,14,3,12,0.00014980,0.00048179,0.1125,3:13:00.000,2021-07-24 22:13:17
6661,CCCV Chg,14,3,12,0.00014980,0.00052799,0.1190,3:31:30.000,2021-07-24 22:31:47
6698,CCCV Chg,14,3,12,0.00014980,0.00057418,0.1261,3:50:00.000,2021-07-24 22:50:17
6735,CCCV Chg,14,3,12,0.00014980,0.00062037,0.1320,4:08:30.000,2021-07-24 23:08:47
6772,CCCV Chg,14,3,12,0.00014980,0.00066656,0.1348,4:27:00.000,2021-07-24 23:27:17
6809,CCCV Chg,14,3,12,0.00014980,0.00071275,0.1364,4:45:30.000,2021-07-24 23:45:47
6846,CCCV Chg,14,3,12,0.00014973,0.00075894,0.1376,5:04:00.000,2021-07-25 00:04:18
6883,CCCV Chg,14,3,12,0.00014986,0.00080513,0.1382,5:22:30.000,2021-07-25 00:22:48
6920,CCCV Chg,14,3,12,0.00014980,0.00085132,0.1395,5:41:00.000,2021-07-25 00:41:18
6957,CCCV Chg,14,3,12,0.00014980,0.00089750,0.1413,5:59:30.000,2021-07-25 00:59:48
6994,CCCV Chg,14,3,12,0.00014986,0.00094370,0.1426,6:18:00.000,2021-07-25 01:18:18
7031,CCCV Chg,14,3,12,0.00014980,0.00098988,0.1478,6:36:30.000,2021-07-25 01:36:48
7068,CCCV Chg,14,3,12,0.00014980,0.00103607,0.1546,6:55:00.000,2021-07-25 01:55:18
7105,CCCV Chg,14,3,12,0.00014980,0.00108226,0.1652,7:13:30.000,2021-07-25 02:13:48
7142,CCCV Chg,14,3,12,0.00014980,0.00112845,0.1760,7:32:00.000,2021-07-25 02:32:18
7179,CCCV Chg,14,3,12,0.00014980,0.00117464,0.1928,7:50:30.000,2021-07-25 02:50:48
7216,CCCV Chg,14,3,12,0.00014980,0.00122083,0.2123,8:09:00.000,2021-07-25 03:09:18
7253,CCCV Chg,14,3,12,0.00014980,0.00126701,0.2244,8:27:30.000,2021-07-25 03:27:48
7290,CCCV Chg,14,3,12,0.00014980,0.00131320,0.2356,8:46:00.000,2021-07-25 03:46:18
7327,CCCV Chg,14,3,12,0.00014973,0.00135939,0.3658,9:04:30.000,2021-07-25 04:04:48
7364,CCCV Chg,14,3,12,0.00014980,0.00140557,0.8389,9:23:00.000,2021-07-25 04:23:18
7401,CCCV DChg,17,3,14,-0.00037475,0.00003435,0.4495,0:05:30.000,2021-07-25 04:40:24
7438,CCCV DChg,17,3,14,-0.00037469,0.00014989,0.1906,0:24:00.000,2021-07-25 04:58:54
7475,CCCV DChg,17,3,14,-0.00037475,0.00026543,0.1419,0:42:30.000,2021-07-25 05:17:24
7512,CCCV DChg,17,3,14,-0.00037469,0.00038097,0.1103,1:01:00.000,2021-07-25 05:35:54
7549,CCCV DChg,17,3,14,-0.00037475,0.00049651,0.1063,1:19:30.000,2021-07-25 05:54:24
7586,CCCV DChg,17,3,14,-0.00037469,0.00061205,0.1019,1:38:00.000,2021-07-25 06:12:54
7623,CCCV DChg,17,3,14,-0.00037469,0.00072758,0.0911,1:56:30.000,2021-07-25 06:31:24
7660,CCCV DChg,17,3,14,-0.00037469,0.00084312,0.0706,2:15:00.000,2021-07-25 06:49:54
7697,CCCV DChg,17,3,14,-0.00037469,0.00095865,0.0682,2:33:30.000,2021-07-25 07:08:24
7734,CCCV DChg,17,3,14,-0.00037469,0.00107418,0.0629,2:52:00.000,2021-07-25 07:26:54
7771,CCCV DChg,17,3,14,-0.00037462,0.00118970,0.0499,3:10:30.000,2021-07-25 07:45:24
7808,CCCV DChg,17,3,14,-0.00019574,0.00127032,0.0499,3:29:00.000,2021-07-25 08:03:54
7845,CCCV DChg,17,3,14,-0.00013826,0.00132082,0.0502,3:47:30.000,2021-07-25 08:22:24
7882,CCCV DChg,17,3,14,-0.00010224,0.00135764,0.0499,4:06:00.000,2021-07-25 08:40:54
7919,CCCV DChg,17,3,14,-0.00007291,0.00138452,0.0499,4:24:30.000,2021-07-25 08:59:24
7956,CCCV DChg,17,3,14,-0.00004985,0.00140329,0.0502,4:43:00.000,2021-07-25 09:17:54
7993,CCCV DChg,17,3,14,-0.00003174,0.00141572,0.0499,5:01:30.000,2021-07-25 09:36:24
8030,CCCV Chg,19,3,16,0.00037487,0.00008434,0.1075,0:13:30.000,2021-07-25 09:53:40
8067,CCCV Chg,19,3,16,0.00037487,0.00019992,0.1075,0:32:00.000,2021-07-25 10:12:10
8104,CCCV Chg,19,3,16,0.00037487,0.00031550,0.1097,0:50:30.000,2021-07-25 10:30:40
8141,CCCV Chg,19,3,16,0.00037487,0.00043108,0.1174,1:09:00.000,2021-07-25 10:49:10
8178,CCCV Chg,19,3,16,0.00037487,0.00054666,0.1336,1:27:30.000,2021-07-25 11:07:40
8215,CCCV Chg,19,3,16,0.00037487,0.00066225,0.1407,1:46:00.000,2021-07-25 11:26:10
8252,CCCV Chg,19,3,16,0.00037487,0.00077783,0.1432,2:04:30.000,2021-07-25 11:44:40
8289,CCCV Chg,19,3,16,0.00037487,0.00089342,0.1472,2:23:00.000,2021-07-25 12:03:10
8326,CCCV Chg,19,3,16,0.00037487,0.00100900,0.1578,2:41:30.000,2021-07-25 12:21:40
8363,CCCV Chg,19,3,16,0.00037487,0.00112459,0.1819,3:00:00.000,2021-07-25 12:40:10
8400,CCCV Chg,19,3,16,0.00037475,0.00124017,0.2256,3:18:30.000,2021-07-25 12:58:40
8437,CCCV Chg,19,3,16,0.00037487,0.00135576,0.3869,3:37:00.000,2021-07-25 13:17:10
8474,CCCV DChg,22,4,18,-0.00037475,0.00002811,0.4935,0:04:30.000,2021-07-25 13:34:11
8511,CCCV DChg,22,4,18,-0.00037475,0.00014364,0.1943,0:23:00.000,2021-07-25 13:52:41
8548,CCCV DChg,22,4,18,-0.00037469,0.00025917,0.1472,0:41:30.000,2021-07-25 14:11:11
8585,CCCV DChg,22,4,18,-0.00037469,0.00037470,0.1140,1:00:00.000,2021-07-25 14:29:41
8622,CCCV DChg,22,4,18,-0.00037469,0.00049023,0.1091,1:18:30.000,2021-07-25 14:48:11
8659,CCCV DChg,22,4,18,-0.00037469,0.00060576,0.1054,1:37:00.000,2021-07-25 15:06:41
8696,CCCV DChg,22,4,18,-0.00037469,0.00072129,0.0976,1:55:30.000,2021-07-25 15:25:11
8733,CCCV DChg,22,4,18,-0.00037469,0.00083682,0.0728,2:14:00.000,2021-07-25 15:43:41
8770,CCCV DChg,22,4,18,-0.00037469,0.00095235,0.0709,2:32:30.000,2021-07-25 16:02:11
8807,CCCV DChg,22,4,18,-0.00037469,0.00106788,0.0672,2:51:00.000,2021-07-25 16:20:41
8844,CCCV DChg,22,4,18,-0.00037469,0.00118341,0.0598,3:09:30.000,2021-07-25 16:39:11
8881,CCCV DChg,22,4,18,-0.00022457,0.00128496,0.0499,3:28:00.000,2021-07-25 16:57:41
8918,CCCV DChg,22,4,18,-0.00014905,0.00134079,0.0502,3:46:30.000,2021-07-25 17:16:11
8955,CCCV DChg,22,4,18,-0.00009666,0.00137829,0.0499,4:05:00.000,2021-07-25 17:34:41
8992,CCCV DChg,22,4,18,-0.00005753,0.00140170,0.0499,4:23:30.000,2021-07-25 17:53:11
9029,CCCV DChg,22,4,18,-0.00003211,0.00141516,0.0499,4:42:00.000,2021-07-25 18:11:41
9066,CCCV Chg,24,4,20,0.00037487,0.00008432,0.1057,0:13:30.000,2021-07-25 18:28:42
9103,CCCV Chg,24,4,20,0.00037493,0.00019990,0.1072,0:32:00.000,2021-07-25 18:47:12
9140,CCCV Chg,24,4,20,0.00037487,0.00031549,0.1100,0:50:30.000,2021-07-25 19:05:42
9177,CCCV Chg,24,4,20,0.00037487,0.00043108,0.1168,1:09:00.000,2021-07-25 19:24:12
9214,CCCV Chg,24,4,20,0.00037487,0.00054666,0.1336,1:27:30.000,2021-07-25 19:42:42
9251,CCCV Chg,24,4,20,0.00037475,0.00066223,0.1398,1:46:00.000,2021-07-25 20:01:12
9288,CCCV Chg,24,4,20,0.00037475,0.00077779,0.1422,2:04:30.000,2021-07-25 20:19:42
9325,CCCV Chg,24,4,20,0.00037487,0.00089335,0.1460,2:23:00.000,2021-07-25 20:38:12
9362,CCCV Chg,24,4,20,0.00037487,0.00100891,0.1574,2:41:30.000,2021-07-25 20:56:42
9399,CCCV Chg,24,4,20,0.00037475,0.00112446,0.1807,3:00:00.000,2021-07-25 21:15:12
9436,CCCV Chg,24,4,20,0.00037493,0.00124005,0.2266,3:18:30.000,2021-07-25 21:33:42
9473,CCCV Chg,24,4,20,0.00037487,0.00135563,0.3803,3:37:00.000,2021-07-25 21:52:12
9510,CCCV DChg,27,5,22,-0.00037475,0.00002811,0.4926,0:04:30.000,2021-07-25 22:09:19
9547,CCCV DChg,27,5,22,-0.00037475,0.00014365,0.1940,0:23:00.000,2021-07-25 22:27:49
9584,CCCV DChg,27,5,22,-0.00037469,0.00025920,0.1463,0:41:30.000,2021-07-25 22:46:19
9621,CCCV DChg,27,5,22,-0.00037469,0.00037474,0.1134,1:00:00.000,2021-07-25 23:04:49
9658,CCCV DChg,27,5,22,-0.00037475,0.00049028,0.1088,1:18:30.000,2021-07-25 23:23:19
9695,CCCV DChg,27,5,22,-0.00037469,0.00060581,0.1050,1:37:00.000,2021-07-25 23:41:49
9732,CCCV DChg,27,5,22,-0.00037469,0.00072135,0.0970,1:55:30.000,2021-07-26 00:00:19
9769,CCCV DChg,27,5,22,-0.00037469,0.00083688,0.0725,2:14:00.000,2021-07-26 00:18:49
9806,CCCV DChg,27,5,22,-0.00037469,0.00095241,0.0706,2:32:30.000,2021-07-26 00:37:19
9843,CCCV DChg,27,5,22,-0.00037469,0.00106794,0.0675,2:51:00.000,2021-07-26 00:55:49
9880,CCCV DChg,27,5,22,-0.00037469,0.00118347,0.0604,3:09:30.000,2021-07-26 01:14:19
9917,CCCV DChg,27,5,22,-0.00022705,0.00128754,0.0502,3:28:00.000,2021-07-26 01:32:49
9954,CCCV DChg,27,5,22,-0.00013795,0.00134062,0.0502,3:46:30.000,2021-07-26 01:51:19
9991,CCCV DChg,27,5,22,-0.00009244,0.00137593,0.0499,4:05:00.000,2021-07-26 02:09:49
10028,CCCV DChg,27,5,22,-0.00005716,0.00139867,0.0502,4:23:30.000,2021-07-26 02:28:19
10065,CCCV DChg,27,5,22,-0.00003373,0.00141238,0.0502,4:42:00.000,2021-07-26 02:46:49
10102,CCCV Chg,29,5,24,0.00037487,0.00007497,0.1066,0:12:00.000,2021-07-26 03:04:15
10139,CCCV Chg,29,5,24,0.00037487,0.00019054,0.1072,0:30:30.000,2021-07-26 03:22:45
10176,CCCV Chg,29,5,24,0.00037487,0.00030612,0.1097,0:49:00.000,2021-07-26 03:41:15
10213,CCCV Chg,29,5,24,0.00037487,0.00042169,0.1171,1:07:30.000,2021-07-26 03:59:45
10250,CCCV Chg,29,5,24,0.00037475,0.00053726,0.1333,1:26:00.000,2021-07-26 04:18:15
10287,CCCV Chg,29,5,24,0.00037487,0.00065283,0.1407,1:44:30.000,2021-07-26 04:36:45
10324,CCCV Chg,29,5,24,0.00037487,0.00076840,0.1438,2:03:00.000,2021-07-26 04:55:15
10361,CCCV Chg,29,5,24,0.00037487,0.00088397,0.1475,2:21:30.000,2021-07-26 05:13:45
10398,CCCV Chg,29,5,24,0.00037475,0.00099954,0.1571,2:40:00.000,2021-07-26 05:32:15
10435,CCCV Chg,29,5,24,0.00037487,0.00111511,0.1798,2:58:30.000,2021-07-26 05:50:45
10472,CCCV Chg,29,5,24,0.00037475,0.00123067,0.2253,3:17:00.000,2021-07-26 06:09:15
10509,CCCV Chg,29,5,24,0.00037487,0.00134624,0.3422,3:35:30.000,2021-07-26 06:27:45
10546,CCCV DChg,32,6,26,-0.00037475,0.00002186,0.5459,0:03:30.000,2021-07-26 06:45:08
10583,CCCV DChg,32,6,26,-0.00037469,0.00013740,0.1946,0:22:00.000,2021-07-26 07:03:38
10620,CCCV DChg,32,6,26,-0.00037469,0.00025293,0.1488,0:40:30.000,2021-07-26 07:22:08
10657,CCCV DChg,32,6,26,-0.00037469,0.00036847,0.1137,0:59:00.000,2021-07-26 07:40:38
10694,CCCV DChg,32,6,26,-0.00037469,0.00048400,0.1088,1:17:30.000,2021-07-26 07:59:08
10731,CCCV DChg,32,6,26,-0.00037469,0.00059953,0.1054,1:36:00.000,2021-07-26 08:17:38
10768,CCCV DChg,32,6,26,-0.00037475,0.00071506,0.0976,1:54:30.000,2021-07-26 08:36:08
10805,CCCV DChg,32,6,26,-0.00037469,0.00083059,0.0728,2:13:00.000,2021-07-26 08:54:38
10842,CCCV DChg,32,6,26,-0.00037469,0.00094612,0.0709,2:31:30.000,2021-07-26 09:13:07
10879,CCCV DChg,32,6,26,-0.00037469,0.00106165,0.0682,2:50:00.000,2021-07-26 09:31:37
10916,CCCV DChg,32,6,26,-0.00037475,0.00117719,0.0616,3:08:30.000,2021-07-26 09:50:07
10953,CCCV DChg,32,6,26,-0.00025099,0.00128555,0.0502,3:27:00.000,2021-07-26 10:08:37
10990,CCCV DChg,32,6,26,-0.00014242,0.00134206,0.0499,3:45:30.000,2021-07-26 10:27:07
11027,CCCV DChg,32,6,26,-0.00009331,0.00137817,0.0496,4:04:00.000,2021-07-26 10:45:37
11064,CCCV DChg,32,6,26,-0.00005561,0.00140076,0.0499,4:22:30.000,2021-07-26 11:04:07
11101,CCCV DChg,32,6,26,-0.00003143,0.00141388,0.0499,4:41:00.000,2021-07-26 11:22:37
11138,CCCV Chg,34,6,28,0.00037487,0.00008745,0.1057,0:14:00.000,2021-07-26 11:39:38
11175,CCCV Chg,34,6,28,0.00037475,0.00020302,0.1063,0:32:30.000,2021-07-26 11:58:08
11212,CCCV Chg,34,6,28,0.00037487,0.00031859,0.1091,0:51:00.000,2021-07-26 12:16:38
11249,CCCV Chg,34,6,28,0.00037475,0.00043415,0.1168,1:09:30.000,2021-07-26 12:35:08
11286,CCCV Chg,34,6,28,0.00037487,0.00054972,0.1329,1:28:00.000,2021-07-26 12:53:38
11323,CCCV Chg,34,6,28,0.00037487,0.00066530,0.1401,1:46:30.000,2021-07-26 13:12:08
11360,CCCV Chg,34,6,28,0.00037487,0.00078086,0.1432,2:05:00.000,2021-07-26 13:30:38
11397,CCCV Chg,34,6,28,0.00037487,0.00089644,0.1469,2:23:30.000,2021-07-26 13:49:08
11434,CCCV Chg,34,6,28,0.00037487,0.00101202,0.1578,2:42:00.000,2021-07-26 14:07:38
11471,CCCV Chg,34,6,28,0.00037475,0.00112760,0.1822,3:00:30.000,2021-07-26 14:26:08
11508,CCCV Chg,34,6,28,0.00037487,0.00124317,0.2269,3:19:00.000,2021-07-26 14:44:38
11545,CCCV Chg,34,6,28,0.00037475,0.00135875,0.3958,3:37:30.000,2021-07-26 15:03:08
11582,CCCV DChg,37,7,30,-0.00037475,0.00003123,0.4687,0:05:00.000,2021-07-26 15:20:09
11619,CCCV DChg,37,7,30,-0.00037469,0.00014678,0.1934,0:23:30.000,2021-07-26 15:38:39
11656,CCCV DChg,37,7,30,-0.00037475,0.00026232,0.1450,0:42:00.000,2021-07-26 15:57:09
11693,CCCV DChg,37,7,30,-0.00037469,0.00037786,0.1134,1:00:30.000,2021-07-26 16:15:39
11730,CCCV DChg,37,7,30,-0.00037475,0.00049341,0.1091,1:19:00.000,2021-07-26 16:34:09
11767,CCCV DChg,37,7,30,-0.00037475,0.00060896,0.1054,1:37:30.000,2021-07-26 16:52:39
11804,CCCV DChg,37,7,30,-0.00037475,0.00072450,0.0973,1:56:00.000,2021-07-26 17:11:09
11841,CCCV DChg,37,7,30,-0.00037469,0.00084005,0.0731,2:14:30.000,2021-07-26 17:29:39
11878,CCCV DChg,37,7,30,-0.00037469,0.00095559,0.0719,2:33:00.000,2021-07-26 17:48:09
11915,CCCV DChg,37,7,30,-0.00037475,0.00107113,0.0688,2:51:30.000,2021-07-26 18:06:39
11952,CCCV DChg,37,7,30,-0.00037469,0.00118667,0.0626,3:10:00.000,2021-07-26 18:25:09
11989,CCCV DChg,37,7,30,-0.00026178,0.00129682,0.0499,3:28:30.000,2021-07-26 18:43:39
12026,CCCV DChg,37,7,30,-0.00013950,0.00135410,0.0502,3:47:00.000,2021-07-26 19:02:09
12063,CCCV DChg,37,7,30,-0.00008320,0.00138804,0.0499,4:05:30.000,2021-07-26 19:20:39
12100,CCCV DChg,37,7,30,-0.00004544,0.00140731,0.0499,4:24:00.000,2021-07-26 19:39:09
12137,CCCV Chg,39,7,32,0.00037487,0.00002187,0.1004,0:03:30.000,2021-07-26 19:56:28
12174,CCCV Chg,39,7,32,0.00037487,0.00013744,0.1060,0:22:00.000,2021-07-26 20:14:58
12211,CCCV Chg,39,7,32,0.00037487,0.00025301,0.1078,0:40:30.000,2021-07-26 20:33:28
12248,CCCV Chg,39,7,32,0.00037487,0.00036858,0.1119,0:59:00.000,2021-07-26 20:51:58
12285,CCCV Chg,39,7,32,0.00037487,0.00048415,0.1243,1:17:30.000,2021-07-26 21:10:28
12322,CCCV Chg,39,7,32,0.00037475,0.00059971,0.1376,1:36:00.000,2021-07-26 21:28:58
12359,CCCV Chg,39,7,32,0.00037487,0.00071527,0.1419,1:54:30.000,2021-07-26 21:47:28
12396,CCCV Chg,39,7,32,0.00037487,0.00083086,0.1457,2:13:00.000,2021-07-26 22:05:58
12433,CCCV Chg,39,7,32,0.00037487,0.00094645,0.1512,2:31:30.000,2021-07-26 22:24:28
12470,CCCV Chg,39,7,32,0.00037487,0.00106203,0.1677,2:50:00.000,2021-07-26 22:42:58
12507,CCCV Chg,39,7,32,0.00037487,0.00117761,0.2002,3:08:30.000,2021-07-26 23:01:28
12544,CCCV Chg,39,7,32,0.00037487,0.00129319,0.2343,3:27:00.000,2021-07-26 23:19:58
12581,CCCV Chg,39,7,32,0.00014930,0.00140821,1.3008,3:45:30.000,2021-07-26 23:38:28
12618,CCCV DChg,42,7,34,-0.00075080,0.00016893,0.1791,0:13:30.000,2021-07-26 23:55:55
12655,CCCV DChg,42,7,34,-0.00075080,0.00040043,0.1019,0:32:00.000,2021-07-27 00:14:24
12692,CCCV DChg,42,7,34,-0.00075080,0.00063193,0.0926,0:50:30.000,2021-07-27 00:32:54
12729,CCCV DChg,42,7,34,-0.00075080,0.00086342,0.0598,1:09:00.000,2021-07-27 00:51:24
12766,CCCV DChg,42,7,34,-0.00070200,0.00109427,0.0499,1:27:30.000,2021-07-27 01:09:54
12803,CCCV DChg,42,7,34,-0.00030034,0.00124150,0.0499,1:46:00.000,2021-07-27 01:28:24
12840,CCCV DChg,42,7,34,-0.00016970,0.00130895,0.0499,2:04:30.000,2021-07-27 01:46:54
12877,CCCV DChg,42,7,34,-0.00011960,0.00135324,0.0502,2:23:00.000,2021-07-27 02:05:24
12914,CCCV DChg,42,7,34,-0.00007775,0.00138340,0.0499,2:41:30.000,2021-07-27 02:23:54
12951,CCCV Chg,44,7,36,0.00075086,0.00018146,0.1215,0:14:30.000,2021-07-27 02:41:17
12988,CCCV Chg,44,7,36,0.00075086,0.00041297,0.1373,0:33:00.000,2021-07-27 02:59:47
13025,CCCV Chg,44,7,36,0.00075086,0.00064449,0.1531,0:51:30.000,2021-07-27 03:18:17
13062,CCCV Chg,44,7,36,0.00075086,0.00087600,0.1630,1:10:00.000,2021-07-27 03:36:47
13099,CCCV Chg,44,7,36,0.00075086,0.00110752,0.1974,1:28:30.000,2021-07-27 03:55:17
13136,CCCV Chg,44,7,36,0.00075086,0.00133904,0.4504,1:47:00.000,2021-07-27 04:13:47
13173,CCCV DChg,47,8,38,-0.00075080,0.00015016,0.1816,0:12:00.000,2021-07-27 04:31:17
13210,CCCV DChg,47,8,38,-0.00075080,0.00038166,0.1010,0:30:30.000,2021-07-27 04:49:47
13247,CCCV DChg,47,8,38,-0.00075080,0.00061315,0.0917,0:49:00.000,2021-07-27 05:08:17
13284,CCCV DChg,47,8,38,-0.00075080,0.00084465,0.0607,1:07:30.000,2021-07-27 05:26:47
13321,CCCV DChg,47,8,38,-0.00072991,0.00107606,0.0499,1:26:00.000,2021-07-27 05:45:17
13358,CCCV DChg,47,8,38,-0.00028466,0.00122198,0.0502,1:44:30.000,2021-07-27 06:03:47
13395,CCCV DChg,47,8,38,-0.00017999,0.00128945,0.0502,2:03:00.000,2021-07-27 06:22:17
13432,CCCV DChg,47,8,38,-0.00013237,0.00133754,0.0502,2:21:30.000,2021-07-27 06:40:47
13469,CCCV DChg,47,8,38,-0.00008971,0.00137160,0.0499,2:40:00.000,2021-07-27 06:59:17
13506,CCCV Chg,49,8,40,0.00075086,0.00010011,0.1236,0:08:00.000,2021-07-27 07:16:18
13543,CCCV Chg,49,8,40,0.00075086,0.00033163,0.1289,0:26:30.000,2021-07-27 07:34:48
13580,CCCV Chg,49,8,40,0.00075086,0.00056314,0.1509,0:45:00.000,2021-07-27 07:53:18
13617,CCCV Chg,49,8,40,0.00075086,0.00079466,0.1587,1:03:30.000,2021-07-27 08:11:48
13654,CCCV Chg,49,8,40,0.00075086,0.00102618,0.1810,1:22:00.000,2021-07-27 08:30:18
13691,CCCV Chg,49,8,40,0.00075086,0.00125769,0.2442,1:40:30.000,2021-07-27 08:48:48
13728,CCCV DChg,52,9,42,-0.00075086,0.00006883,0.2700,0:05:30.000,2021-07-27 09:06:10
13765,CCCV DChg,52,9,42,-0.00075080,0.00030033,0.1193,0:24:00.000,2021-07-27 09:24:40
13802,CCCV DChg,52,9,42,-0.00075086,0.00053183,0.0954,0:42:30.000,2021-07-27 09:43:10
13839,CCCV DChg,52,9,42,-0.00075086,0.00076334,0.0688,1:01:00.000,2021-07-27 10:01:40
13876,CCCV DChg,52,9,42,-0.00075086,0.00099484,0.0558,1:19:30.000,2021-07-27 10:20:10
13913,CCCV DChg,52,9,42,-0.00039335,0.00118657,0.0499,1:38:00.000,2021-07-27 10:38:40
13950,CCCV DChg,52,9,42,-0.00021155,0.00127177,0.0499,1:56:30.000,2021-07-27 10:57:10
13987,CCCV DChg,52,9,42,-0.00015339,0.00132768,0.0499,2:15:00.000,2021-07-27 11:15:40
14024,CCCV DChg,52,9,42,-0.00010168,0.00136673,0.0505,2:33:30.000,2021-07-27 11:34:10
14061,CCCV Chg,54,9,44,0.00075093,0.00004380,0.1264,0:03:30.000,2021-07-27 11:51:11
14098,CCCV Chg,54,9,44,0.00075086,0.00027533,0.1246,0:22:00.000,2021-07-27 12:09:41
14135,CCCV Chg,54,9,44,0.00075086,0.00050687,0.1472,0:40:30.000,2021-07-27 12:28:11
14172,CCCV Chg,54,9,44,0.00075093,0.00073840,0.1562,0:59:00.000,2021-07-27 12:46:41
14209,CCCV Chg,54,9,44,0.00075093,0.00096993,0.1717,1:17:30.000,2021-07-27 13:05:11
14246,CCCV Chg,54,9,44,0.00075099,0.00120147,0.2343,1:36:00.000,2021-07-27 13:23:41
14283,CCCV DChg,57,10,46,-0.00075086,0.00000626,0.7796,0:00:30.000,2021-07-27 13:40:45
14320,CCCV DChg,57,10,46,-0.00075086,0.00023777,0.1450,0:19:00.000,2021-07-27 13:59:15
14357,CCCV DChg,57,10,46,-0.00075086,0.00046928,0.0979,0:37:30.000,2021-07-27 14:17:45
14394,CCCV DChg,57,10,46,-0.00075080,0.00070077,0.0827,0:56:00.000,2021-07-27 14:36:15
14431,CCCV DChg,57,10,46,-0.00075074,0.00093226,0.0585,1:14:30.000,2021-07-27 14:54:45
14468,CCCV DChg,57,10,46,-0.00052449,0.00115017,0.0499,1:33:00.000,2021-07-27 15:13:15
14505,CCCV DChg,57,10,46,-0.00023580,0.00125597,0.0499,1:51:30.000,2021-07-27 15:31:45
14542,CCCV DChg,57,10,46,-0.00016790,0.00131713,0.0499,2:10:00.000,2021-07-27 15:50:15
14579,CCCV DChg,57,10,46,-0.00011421,0.00136043,0.0496,2:28:30.000,2021-07-27 16:08:45
14616,Rest,58,10,47,0.00000000,0.00000000,0.0598,0:01:30.000,2021-07-27 16:26:19
14653,CCCV Chg,59,10,48,0.00075086,0.00022526,0.1215,0:18:00.000,2021-07-27 16:44:19
14690,CCCV Chg,59,10,48,0.00075086,0.00045677,0.1407,0:36:30.000,2021-07-27 17:02:49
14727,CCCV Chg,59,10,48,0.00075086,0.00068829,0.1534,0:55:00.000,2021-07-27 17:21:19
14764,CCCV Chg,59,10,48,0.00075086,0.00091980,0.1655,1:13:30.000,2021-07-27 17:39:49
14801,CCCV Chg,59,10,48,0.00075086,0.00115132,0.2117,1:32:00.000,2021-07-27 17:58:19
14838,CCCV Chg,59,10,48,0.00023183,0.00138172,1.3008,1:50:30.000,2021-07-27 18:16:50
14875,CCCV DChg,62,11,50,-0.00075086,0.00018771,0.1705,0:15:00.000,2021-07-27 18:34:00
14912,CCCV DChg,62,11,50,-0.00075080,0.00041921,0.0992,0:33:30.000,2021-07-27 18:52:30
14949,CCCV DChg,62,11,50,-0.00075080,0.00065071,0.0895,0:52:00.000,2021-07-27 19:11:00
14986,CCCV DChg,62,11,50,-0.00075080,0.00088220,0.0610,1:10:30.000,2021-07-27 19:29:30
15023,CCCV DChg,62,11,50,-0.00067199,0.00111230,0.0502,1:29:00.000,2021-07-27 19:48:00
15060,CCCV DChg,62,11,50,-0.00027219,0.00124451,0.0502,1:47:30.000,2021-07-27 20:06:30
15097,CCCV DChg,62,11,50,-0.00018142,0.00131223,0.0499,2:06:00.000,2021-07-27 20:25:00
15134,CCCV DChg,62,11,50,-0.00012096,0.00135857,0.0502,2:24:30.000,2021-07-27 20:43:30
15171,Rest,63,11,51,0.00000000,0.00000000,0.0585,0:00:30.000,2021-07-27 21:01:14
15208,CCCV Chg,64,11,52,0.00075086,0.00021275,0.1215,0:17:00.000,2021-07-27 21:19:14
15245,CCCV Chg,64,11,52,0.00075086,0.00044427,0.1395,0:35:30.000,2021-07-27 21:37:44
15282,CCCV Chg,64,11,52,0.00075086,0.00067579,0.1534,0:54:00.000,2021-07-27 21:56:14
15319,CCCV Chg,64,11,52,0.00075086,0.00090731,0.1646,1:12:30.000,2021-07-27 22:14:44
15356,CCCV Chg,64,11,52,0.00075086,0.00113882,0.2070,1:31:00.000,2021-07-27 22:33:14
15393,CCCV Chg,64,11,52,0.00075086,0.00137034,0.7521,1:49:30.000,2021-07-27 22:51:44
15430,CCCV DChg,67,11,54,-0.00150142,0.00026276,0.1137,0:10:30.000,2021-07-27 23:08:57
15467,CCCV DChg,67,11,54,-0.00150142,0.00072568,0.0508,0:29:00.000,2021-07-27 23:27:27
15504,CCCV DChg,67,11,54,-0.00074696,0.00104695,0.0505,0:47:30.000,2021-07-27 23:45:57
15541,CCCV DChg,67,11,54,-0.00031888,0.00120383,0.0502,1:06:00.000,2021-07-28 00:04:27
15578,CCCV DChg,67,11,54,-0.00020269,0.00127986,0.0499,1:24:30.000,2021-07-28 00:22:57
15615,Rest,68,11,55,0.00000000,0.00000000,0.0685,0:01:00.000,2021-07-28 00:40:56
15652,CCCV Chg,69,11,56,0.00150235,0.00035057,0.1562,0:14:00.000,2021-07-28 00:58:56
15689,CCCV Chg,69,11,56,0.00150235,0.00081382,0.1807,0:32:30.000,2021-07-28 01:17:26
15726,CCCV Chg,69,11,56,0.00150204,0.00127706,0.4126,0:51:00.000,2021-07-28 01:35:56
15763,CCCV DChg,72,12,58,-0.00150204,0.00025030,0.1202,0:10:00.000,2021-07-28 01:53:16
15800,CCCV DChg,72,12,58,-0.00150142,0.00071333,0.0517,0:28:30.000,2021-07-28 02:11:46
15837,CCCV DChg,72,12,58,-0.00071093,0.00102827,0.0502,0:47:00.000,2021-07-28 02:30:16
15874,CCCV DChg,72,12,58,-0.00030512,0.00117375,0.0502,1:05:30.000,2021-07-28 02:48:46
15911,CCCV DChg,72,12,58,-0.00021937,0.00125202,0.0499,1:24:00.000,2021-07-28 03:07:16
15948,CCCV DChg,72,12,58,-0.00016431,0.00131111,0.0499,1:42:30.000,2021-07-28 03:25:46
15985,CCCV Chg,74,12,60,0.00150235,0.00017527,0.1491,0:07:00.000,2021-07-28 03:42:53
16022,CCCV Chg,74,12,60,0.00150235,0.00063849,0.1767,0:25:30.000,2021-07-28 04:01:23
16059,CCCV Chg,74,12,60,0.00150235,0.00110170,0.2402,0:44:00.000,2021-07-28 04:19:53
16096,CCCV DChg,77,13,62,-0.00150173,0.00007509,0.2278,0:03:00.000,2021-07-28 04:37:01
16133,CCCV DChg,77,13,62,-0.00150142,0.00053807,0.0731,0:21:30.000,2021-07-28 04:55:31
16170,CCCV DChg,77,13,62,-0.00090854,0.00092795,0.0502,0:40:00.000,2021-07-28 05:14:01
16207,CCCV DChg,77,13,62,-0.00041269,0.00112706,0.0499,0:58:30.000,2021-07-28 05:32:31
16244,CCCV DChg,77,13,62,-0.00024441,0.00122096,0.0499,1:17:00.000,2021-07-28 05:51:01
16281,CCCV DChg,77,13,62,-0.00018594,0.00128708,0.0502,1:35:30.000,2021-07-28 06:09:31
16318,Rest,78,13,63,0.00000000,0.00000000,0.0728,0:05:00.000,2021-07-28 06:27:07
16355,CCCV Chg,79,13,64,0.00150204,0.00045069,0.1705,0:18:00.000,2021-07-28 06:45:07
16392,CCCV Chg,79,13,64,0.00150235,0.00091389,0.1990,0:36:30.000,2021-07-28 07:03:37
16429,Rest,81,14,65,0.00000000,0.00000000,1.1442,0:01:00.000,2021-07-28 07:21:11
16466,CCCV DChg,82,14,66,-0.00150142,0.00035037,0.0846,0:14:00.000,2021-07-28 07:39:11
16503,CCCV DChg,82,14,66,-0.00113932,0.00079859,0.0499,0:32:30.000,2021-07-28 07:57:41
16540,CCCV DChg,82,14,66,-0.00059747,0.00106133,0.0499,0:51:00.000,2021-07-28 08:16:11
16577,CCCV DChg,82,14,66,-0.00028813,0.00118785,0.0499,1:09:30.000,2021-07-28 08:34:41
16614,CCCV DChg,82,14,66,-0.00021013,0.00126287,0.0502,1:28:00.000,2021-07-28 08:53:11
16651,CCCV DChg,82,14,66,-0.00015507,0.00131907,0.0499,1:46:30.000,2021-07-28 09:11:41
16688,CCCV Chg,84,14,68,0.00150235,0.00026289,0.1559,0:10:30.000,2021-07-28 09:29:05
16725,CCCV Chg,84,14,68,0.00150235,0.00072608,0.1829,0:29:00.000,2021-07-28 09:47:35
16762,CCCV Chg,84,14,68,0.00150266,0.00118929,0.2659,0:47:30.000,2021-07-28 10:06:05
16799,CCCV DChg,87,15,70,-0.00150204,0.00016269,0.1574,0:06:30.000,2021-07-28 10:23:13
16836,CCCV DChg,87,15,70,-0.00150111,0.00062573,0.0647,0:25:00.000,2021-07-28 10:41:43
16873,CCCV DChg,87,15,70,-0.00080958,0.00097834,0.0505,0:43:30.000,2021-07-28 11:00:13
16910,CCCV DChg,87,15,70,-0.00037344,0.00115397,0.0505,1:02:00.000,2021-07-28 11:18:43
16947,CCCV DChg,87,15,70,-0.00024088,0.00124385,0.0499,1:20:30.000,2021-07-28 11:37:13
16984,CCCV DChg,87,15,70,-0.00017485,0.00130761,0.0505,1:39:00.000,2021-07-28 11:55:43
17021,CCCV Chg,89,15,72,0.00150235,0.00011267,0.1506,0:04:30.000,2021-07-28 12:13:07
17058,CCCV Chg,89,15,72,0.00150204,0.00057589,0.1751,0:23:00.000,2021-07-28 12:31:37
17095,CCCV Chg,89,15,72,0.00150235,0.00103910,0.2216,0:41:30.000,2021-07-28 12:50:07
17132,Rest,91,15,73,0.00000000,0.00000000,1.0580,0:06:00.000,2021-07-28 13:07:57
17169,CCCV DChg,92,15,74,-0.00181299,0.00061753,0.0502,0:14:00.000,2021-07-28 13:25:57
17206,CCCV DChg,92,15,74,-0.00079402,0.00096569,0.0502,0:32:30.000,2021-07-28 13:44:27
17243,CCCV DChg,92,15,74,-0.00039050,0.00114414,0.0499,0:51:00.000,2021-07-28 14:02:57
17280,Rest,93,15,75,0.00000000,0.00000000,0.0833,0:10:00.000,2021-07-28 14:20:56
17317,CCCV Chg,94,15,76,0.00299913,0.00089973,0.2619,0:18:00.000,2021-07-28 14:38:56
17354,CCCV DChg,97,16,78,-0.00299882,0.00007497,0.1946,0:01:30.000,2021-07-28 14:56:24
17391,CCCV DChg,97,16,78,-0.00116412,0.00077567,0.0499,0:20:00.000,2021-07-28 15:14:54
17428,CCCV DChg,97,16,78,-0.00052349,0.00102439,0.0499,0:38:30.000,2021-07-28 15:33:24
17465,CCCV DChg,97,16,78,-0.00030741,0.00114241,0.0499,0:57:00.000,2021-07-28 15:51:54
17502,CCCV Chg,99,16,80,0.00299913,0.00027492,0.2089,0:05:30.000,2021-07-28 16:09:02
17539,Rest,101,17,81,0.00000000,0.00000000,1.2955,0:00:00.000,2021-07-28 16:26:44
17576,CCCV DChg,102,17,82,-0.00293371,0.00039972,0.0502,0:08:00.000,2021-07-28 16:44:44
17613,CCCV DChg,102,17,82,-0.00086228,0.00088963,0.0502,0:26:30.000,2021-07-28 17:03:14
17650,CCCV DChg,102,17,82,-0.00038913,0.00106770,0.0492,0:45:00.000,2021-07-28 17:21:44
17687,Rest,103,17,83,0.00000000,0.00000000,0.0762,0:00:30.000,2021-07-28 17:39:29
17724,CCCV Chg,104,17,84,0.00299882,0.00042486,0.2101,0:08:30.000,2021-07-28 17:57:29
17761,Rest,106,18,85,0.00000000,0.00000000,1.0574,0:03:00.000,2021-07-28 18:15:27
17798,CCCV DChg,107,18,86,-0.00239645,0.00053501,0.0499,0:11:00.000,2021-07-28 18:33:27
17835,CCCV DChg,107,18,86,-0.00077114,0.00094170,0.0499,0:29:30.000,2021-07-28 18:51:57
17872,CCCV DChg,107,18,86,-0.00037524,0.00110155,0.0499,0:48:00.000,2021-07-28 19:10:27
17909,Rest,108,18,87,0.00000000,0.00000000,0.0784,0:02:00.000,2021-07-28 19:27:58
17946,CCCV Chg,109,18,88,0.00299882,0.00049985,0.2117,0:10:00.000,2021-07-28 19:45:58
17983,Rest,111,19,89,0.00000000,0.00000000,1.0460,0:04:00.000,2021-07-28 20:03:55
18020,CCCV DChg,112,19,90,-0.00224237,0.00057678,0.0502,0:12:00.000,2021-07-28 20:21:55
18057,CCCV DChg,112,19,90,-0.00074727,0.00096598,0.0499,0:30:30.000,2021-07-28 20:40:25
18094,CCCV DChg,112,19,90,-0.00036793,0.00112219,0.0502,0:49:00.000,2021-07-28 20:58:55
18131,Rest,113,19,91,0.00000000,0.00000000,0.0815,0:06:00.000,2021-07-28 21:16:41
18168,CCCV Chg,114,19,92,0.00299913,0.00069980,0.2275,0:14:00.000,2021-07-28 21:34:41
18205,Rest,116,19,93,0.00000000,0.00000000,1.0208,0:08:00.000,2021-07-28 21:52:36
18242,CCCV DChg,117,19,94,-0.00131448,0.00075710,0.0499,0:16:00.000,2021-07-28 22:10:36
18279,Rest,118,19,95,0.00000000,0.00000000,0.0815,0:01:00.000,2021-07-28 22:28:30
18316,CCCV Chg,119,19,96,0.0059982,0.0008997,0.4721,0:09:00.000,2021-07-28 22:46:30
18353,CCCV DChg,122,20,98,-0.00270864,0.00042851,0.0499,0:06:00.000,2021-07-28 23:03:49
18390,CCCV DChg,122,20,98,-0.00065966,0.00086635,0.0502,0:24:30.000,2021-07-28 23:22:19
18427,CCCV Chg,124,20,100,0.0059982,0.0005498,0.3348,0:05:30.000,2021-07-28 23:39:24
18464,CCCV DChg,127,21,102,-0.00338820,0.00029955,0.0502,0:03:30.000,2021-07-28 23:56:30
18501,CCCV DChg,127,21,102,-0.00063572,0.00079814,0.0499,0:22:00.000,2021-07-29 00:15:00
18538,CCCV Chg,129,21,104,0.0059982,0.0005998,0.3838,0:06:00.000,2021-07-29 00:32:03
18575,CCCV DChg,132,22,106,-0.00275142,0.00037112,0.0502,0:05:00.000,2021-07-29 00:49:23
18612,Rest,133,22,107,0.00000000,0.00000000,0.0892,0:00:30.000,2021-07-29 01:07:11
18649,Rest,136,23,109,0.00000000,0.00000000,1.2903,0:00:00.000,2021-07-29 01:24:39
18686,CCCV DChg,137,23,110,-0.00217044,0.00048882,0.0499,0:08:00.000,2021-07-29 01:42:39
18723,Rest,138,23,111,0.00000000,0.00000000,0.0973,0:03:30.000,2021-07-29 02:00:24
18760,Rest,141,23,113,0.00000000,0.00000000,1.0221,0:03:00.000,2021-07-29 02:17:43
18797,CCCV DChg,142,23,114,-0.00075080,0.00013765,0.1810,0:11:00.000,2021-07-29 02:35:43
18834,CCCV DChg,142,23,114,-0.00075080,0.00036914,0.0976,0:29:30.000,2021-07-29 02:54:13
18871,CCCV DChg,142,23,114,-0.00075080,0.00060064,0.0821,0:48:00.000,2021-07-29 03:12:43
18908,CCCV DChg,142,23,114,-0.00052281,0.00081543,0.0499,1:06:30.000,2021-07-29 03:31:13
18945,CCCV DChg,142,23,114,-0.00039347,0.00095066,0.0499,1:25:00.000,2021-07-29 03:49:43
18982,CCCV DChg,142,23,114,-0.00034052,0.00106368,0.0499,1:43:30.000,2021-07-29 04:08:13
19019,CCCV DChg,142,23,114,-0.00028503,0.00116031,0.0499,2:02:00.000,2021-07-29 04:26:43
19056,CCCV DChg,142,23,114,-0.00022612,0.00123913,0.0499,2:20:30.000,2021-07-29 04:45:13
19093,CCCV DChg,142,23,114,-0.00016914,0.00129992,0.0499,2:39:00.000,2021-07-29 05:03:43
19130,CCCV DChg,142,23,114,-0.00011941,0.00134415,0.0499,2:57:30.000,2021-07-29 05:22:13
19167,CCCV DChg,142,23,114,-0.00007905,0.00137446,0.0499,3:16:00.000,2021-07-29 05:40:43
19204,CCCV Chg,144,23,116,0.00075086,0.00006257,0.1292,0:05:00.000,2021-07-29 05:57:55
19241,CCCV Chg,144,23,116,0.00075086,0.00029409,0.1336,0:23:30.000,2021-07-29 06:16:25
19278,CCCV Chg,144,23,116,0.00075086,0.00052560,0.1528,0:42:00.000,2021-07-29 06:34:55
19315,CCCV Chg,144,23,116,0.00075086,0.00075712,0.1630,1:00:30.000,2021-07-29 06:53:25
19352,CCCV Chg,144,23,116,0.00075086,0.00098863,0.1838,1:19:00.000,2021-07-29 07:11:55
19389,CCCV Chg,144,23,116,0.00075086,0.00122015,0.2418,1:37:30.000,2021-07-29 07:30:25
19426,Rest,146,24,117,0.00000000,0.00000000,1.1058,0:04:30.000,2021-07-29 07:48:02
19463,CCCV DChg,147,24,118,-0.00075080,0.00015642,0.1764,0:12:30.000,2021-07-29 08:06:02
19500,CCCV DChg,147,24,118,-0.00075080,0.00038791,0.0982,0:31:00.000,2021-07-29 08:24:32
19537,CCCV DChg,147,24,118,-0.00075080,0.00061940,0.0864,0:49:30.000,2021-07-29 08:43:02
19574,CCCV DChg,147,24,118,-0.00075074,0.00085089,0.0579,1:08:00.000,2021-07-29 09:01:31
19611,CCCV DChg,147,24,118,-0.00061960,0.00107609,0.0502,1:26:30.000,2021-07-29 09:20:01
19648,CCCV DChg,147,24,118,-0.00033221,0.00121769,0.0499,1:45:00.000,2021-07-29 09:38:31
19685,CCCV DChg,147,24,118,-0.00020876,0.00129791,0.0502,2:03:30.000,2021-07-29 09:57:01
19722,CCCV DChg,147,24,118,-0.00013392,0.00135016,0.0499,2:22:00.000,2021-07-29 10:15:31
19759,CCCV DChg,147,24,118,-0.00007930,0.00138252,0.0496,2:40:30.000,2021-07-29 10:34:01
19796,CCCV Chg,149,24,120,0.00075080,0.00006883,0.1209,0:05:30.000,2021-07-29 10:51:27
19833,CCCV Chg,149,24,120,0.00075086,0.00030034,0.1283,0:24:00.000,2021-07-29 11:09:57
19870,CCCV Chg,149,24,120,0.00075086,0.00053186,0.1491,0:42:30.000,2021-07-29 11:28:27
19907,CCCV Chg,149,24,120,0.00075086,0.00076337,0.1590,1:01:00.000,2021-07-29 11:46:57
19944,CCCV Chg,149,24,120,0.00075086,0.00099489,0.1791,1:19:30.000,2021-07-29 12:05:27
19981,CCCV Chg,149,24,120,0.00075086,0.00122641,0.2396,1:38:00.000,2021-07-29 12:23:57
20018,Rest,151,25,121,0.00000000,0.00000000,1.1067,0:04:30.000,2021-07-29 12:41:33
20055,CCCV DChg,152,25,122,-0.00075080,0.00015642,0.1788,0:12:30.000,2021-07-29 12:59:33
20092,CCCV DChg,152,25,122,-0.00075080,0.00038792,0.0998,0:31:00.000,2021-07-29 13:18:03
20129,CCCV DChg,152,25,122,-0.00075080,0.00061941,0.0895,0:49:30.000,2021-07-29 13:36:33
20166,CCCV DChg,152,25,122,-0.00075080,0.00085091,0.0607,1:08:00.000,2021-07-29 13:55:03
20203,CCCV DChg,152,25,122,-0.00070368,0.00108181,0.0499,1:26:30.000,2021-07-29 14:13:33
20240,CCCV DChg,152,25,122,-0.00034356,0.00123634,0.0508,1:45:00.000,2021-07-29 14:32:03
20277,CCCV DChg,152,25,122,-0.00019698,0.00131581,0.0505,2:03:30.000,2021-07-29 14:50:33
20314,CCCV DChg,152,25,122,-0.00011724,0.00136345,0.0499,2:22:00.000,2021-07-29 15:09:03
20351,Rest,153,25,123,0.00000000,0.00000000,0.0604,0:03:30.000,2021-07-29 15:26:57
20388,CCCV Chg,154,25,124,0.00075093,0.00014393,0.1218,0:11:30.000,2021-07-29 15:44:58
20425,CCCV Chg,154,25,124,0.00075086,0.00037546,0.1345,0:30:00.000,2021-07-29 16:03:28
20462,CCCV Chg,154,25,124,0.00075086,0.00060699,0.1531,0:48:30.000,2021-07-29 16:21:58
20499,CCCV Chg,154,25,124,0.00075093,0.00083852,0.1630,1:07:00.000,2021-07-29 16:40:28
20536,CCCV Chg,154,25,124,0.00075086,0.00107004,0.1919,1:25:30.000,2021-07-29 16:58:58
20573,CCCV Chg,154,25,124,0.00075086,0.00130155,0.2864,1:44:00.000,2021-07-29 17:17:28
20610,CCCV DChg,157,26,126,-0.00075068,0.00000000,1.0577,0:00:00.000,2021-07-29 17:34:39
20647,CCCV DChg,157,26,126,-0.00075080,0.00023150,0.1457,0:18:30.000,2021-07-29 17:53:09
20684,CCCV DChg,157,26,126,-0.00075080,0.00046300,0.0973,0:37:00.000,2021-07-29 18:11:40
20721,CCCV DChg,157,26,126,-0.00075080,0.00069449,0.0812,0:55:30.000,2021-07-29 18:30:10
20758,CCCV DChg,157,26,126,-0.00075080,0.00092599,0.0582,1:14:00.000,2021-07-29 18:48:40
20795,CCCV DChg,157,26,126,-0.00057335,0.00114694,0.0499,1:32:30.000,2021-07-29 19:07:10
20832,CCCV DChg,157,26,126,-0.00028273,0.00127250,0.0499,1:51:00.000,2021-07-29 19:25:40
20869,CCCV DChg,157,26,126,-0.00016716,0.00134006,0.0499,2:09:30.000,2021-07-29 19:44:10
20906,CCCV DChg,157,26,126,-0.00009424,0.00137974,0.0502,2:28:00.000,2021-07-29 20:02:40
20943,CCCV Chg,159,26,128,0.00075093,0.00000626,0.1075,0:00:30.000,2021-07-29 20:19:42
20980,CCCV Chg,159,26,128,0.00075086,0.00023779,0.1224,0:19:00.000,2021-07-29 20:38:12
21017,CCCV Chg,159,26,128,0.00075086,0.00046932,0.1426,0:37:30.000,2021-07-29 20:56:42
21054,CCCV Chg,159,26,128,0.00075086,0.00070084,0.1553,0:56:00.000,2021-07-29 21:15:12
21091,CCCV Chg,159,26,128,0.00075086,0.00093236,0.1695,1:14:30.000,2021-07-29 21:33:42
21128,CCCV Chg,159,26,128,0.00075093,0.00116388,0.2185,1:33:00.000,2021-07-29 21:52:12
21165,CCCV Chg,159,26,128,0.00007483,0.00138675,1.3014,1:51:24.700,2021-07-29 22:10:36
21202,CCCV DChg,162,27,130,-0.00075086,0.00009385,0.1999,0:07:30.000,2021-07-29 22:28:06
21239,CCCV DChg,162,27,130,-0.00075080,0.00032537,0.1091,0:26:00.000,2021-07-29 22:46:36
21276,CCCV DChg,162,27,130,-0.00075086,0.00055688,0.0930,0:44:30.000,2021-07-29 23:05:06
21313,CCCV DChg,162,27,130,-0.00075086,0.00078839,0.0632,1:03:00.000,2021-07-29 23:23:36
21350,CCCV DChg,162,27,130,-0.00075080,0.00101988,0.0527,1:21:30.000,2021-07-29 23:42:06
21387,CCCV DChg,162,27,130,-0.00041028,0.00120214,0.0499,1:40:00.000,2021-07-30 00:00:37
21424,CCCV DChg,162,27,130,-0.00022451,0.00129490,0.0502,1:58:30.000,2021-07-30 00:19:07
21461,CCCV DChg,162,27,130,-0.00013777,0.00134992,0.0502,2:17:00.000,2021-07-30 00:37:37
21498,CCCV DChg,162,27,130,-0.00007893,0.00138273,0.0499,2:35:30.000,2021-07-30 00:56:07
21535,CCCV Chg,164,27,132,0.00075086,0.00006883,0.1240,0:05:30.000,2021-07-30 01:13:14
21572,CCCV Chg,164,27,132,0.00075086,0.00030035,0.1292,0:24:00.000,2021-07-30 01:31:44
21609,CCCV Chg,164,27,132,0.00075086,0.00053186,0.1509,0:42:30.000,2021-07-30 01:50:14
21646,CCCV Chg,164,27,132,0.00075086,0.00076338,0.1602,1:01:00.000,2021-07-30 02:08:44
21683,CCCV Chg,164,27,132,0.00075086,0.00099489,0.1804,1:19:30.000,2021-07-30 02:27:14
21720,CCCV Chg,164,27,132,0.00075086,0.00122641,0.2415,1:38:00.000,2021-07-30 02:45:44
21747,CCCV Chg,164,27,132,0.00007490,0.00138267,1.3008,1:51:04.900,2021-07-30 02:58:49